timestamp_ms,accX_g,accY_g,accZ_g,gyrX,gyrY,gyrZ,step_count,cadence_spm,peak_impact_g
1784070993501,-0.16202179,1.1436688,0.17031808,18.83,-18.34,-21.84,0,0.0,1.1675776
1784070993501,-0.15030937,1.1627016,0.23790848,20.02,-14.7,-23.17,0,0.0,1.1962727
1784070993501,-0.120540306,1.1863704,0.2779259,22.4,-8.82,-24.85,0,0.0,1.2244376
1784070993501,-0.070518516,1.202719,0.29598257,22.89,-3.29,-26.74,0,0.0,1.2406093
1784070993501,-0.022448802,1.2239476,0.28988236,23.38,0.98,-28.42,0,0.0,1.2580078
1784070993501,0.027328975,1.258353,0.25864923,21.0,2.45,-30.8,0,0.0,1.2849507
1784070993501,0.06319825,1.259817,0.2554771,12.95,0.7,-33.04,0,0.0,1.2870126
1784070993501,0.0012200436,1.1873463,0.28207406,6.3,-3.08,-33.670002,0,0.0,1.2870126
1784070993546,-0.08223093,1.1085316,0.31525928,2.8,-7.91,-32.55,1,0.0,1.2870126
1784070993546,-0.112244,1.0209324,0.3418562,-0.07,-13.86,-30.31,1,0.0,1.2870126
1784070993546,-0.102727674,0.94309366,0.36820915,-3.22,-21.28,-27.72,1,0.0,1.2870126
1784070993546,-0.08808714,0.8781873,0.40578648,-2.1,-27.72,-25.2,1,0.0,1.2870126
1784070993546,-0.10199564,0.82255334,0.39627016,1.89,-32.97,-23.1,1,0.0,1.2870126
1784070993546,-0.12956862,0.8003486,0.38821787,4.55,-36.82,-21.07,1,0.0,1.2870126
1784070993546,-0.15518954,0.79058826,0.37601742,4.83,-38.57,-19.81,1,0.0,1.2870126
1784070993546,-0.16226579,0.83133763,0.32867974,2.1,-38.64,-18.9,1,0.0,1.2870126
1784070993638,-0.14689325,0.90844446,0.31428322,-7.42,-37.94,-18.06,1,0.0,1.2870126
1784070993638,-0.11688017,0.921865,0.2937865,-11.2,-35.77,-17.64,1,0.0,1.2870126
1784070993638,-0.08979521,0.97579086,0.25108495,-10.99,-32.13,-17.64,1,0.0,1.2870126
1784070993638,-0.025132896,1.0504576,0.22351198,-7.35,-27.02,-16.87,1,0.0,1.2870126
1784070993638,0.027084969,1.1224401,0.20789543,-6.44,-20.72,-14.28,1,0.0,1.2870126
1784070993638,0.102239646,1.0970632,0.2098475,-2.24,-13.3,-10.43,1,0.0,1.2870126
1784070993638,0.11297604,1.0570457,0.22985621,4.48,-8.47,-6.44,1,0.0,1.2870126
1784070993638,0.13615687,1.0721743,0.24449673,11.13,-5.46,-1.33,1,0.0,1.2870126
1784070993683,0.09613943,1.1134118,0.27890193,7.35,3.43,3.85,1,0.0,1.2870126
1784070993683,0.18935075,1.0187365,0.2662135,0.28,-6.65,9.03,1,0.0,1.2870126
1784070993683,0.16861002,0.9535861,0.2686536,-8.89,-11.97,14.0,1,0.0,1.2870126
1784070993683,0.14494118,0.90258825,0.23132028,-8.68,-14.0,18.76,1,0.0,1.2870126
1784070993683,0.103947714,0.8701351,0.21033551,-7.4900002,-15.05,22.12,1,0.0,1.2870126
1784070993683,0.060026146,0.8584227,0.2015512,-5.04,-14.91,24.15,1,0.0,1.2870126
1784070993683,0.04343355,0.8428061,0.1847146,-0.28,-13.86,24.78,1,0.0,1.2870126
1784070993683,0.019520698,0.85159045,0.17202614,5.53,-11.41,23.94,1,0.0,1.2870126
1784070993773,0.006832244,0.87306315,0.16372985,9.17,-9.8,22.61,1,0.0,1.2870126
1784070993773,-0.0012200436,0.8557386,0.1649499,12.11,-9.03,20.65,1,0.0,1.2870126
1784070993773,-0.025132896,0.86525494,0.15201743,15.12,-7.84,17.99,1,0.0,1.2870126
1784070993773,-0.051241834,0.86867106,0.14860131,17.43,-7.28,15.190001,1,0.0,1.2870126
1784070993773,-0.06734641,0.8452462,0.16177778,17.5,-8.05,12.39,1,0.0,1.2870126
1784070993773,-0.059050106,0.8496383,0.114928104,23.31,-9.1,8.89,1,0.0,1.2870126
1784070993773,-0.065882355,0.8596427,0.112244,16.66,-14.49,6.23,1,0.0,1.2870126
1784070993773,-0.05685403,0.8574466,0.11175599,11.4800005,-19.81,4.27,1,0.0,1.2870126
1784070993863,-0.03562527,0.84451413,0.10248367,13.93,-24.15,2.8,1,0.0,1.2870126
1784070993863,-0.018544663,0.84744227,0.09199129,22.47,-26.74,1.82,1,0.0,1.2870126
1784070993863,-0.014396514,0.84622216,0.10419172,26.81,-28.07,1.47,1,0.0,1.2870126
1784070993863,-0.009760349,0.8701351,0.10882789,24.92,-28.0,1.61,1,0.0,1.2870126
1784070993863,0.0107363835,0.89258385,0.13005665,20.02,-26.460001,2.03,1,0.0,1.2870126
1784070993863,0.04148148,0.9103965,0.13566884,14.7,-23.94,2.03,1,0.0,1.2870126
1784070993863,0.076374725,0.92284095,0.14762528,11.06,-20.44,1.47,1,0.0,1.2870126
1784070993863,0.11444009,0.924305,0.14469717,7.77,-16.66,0.07,1,0.0,1.2870126
1784070993908,0.15250544,0.93821347,0.117856205,3.43,-13.02,-2.03,1,0.0,1.2870126
1784070993908,0.17983443,0.9367494,0.09613943,-2.8700001,-10.08,-4.2,1,0.0,1.2870126
1784070993908,0.20325926,0.924305,0.1007756,-9.03,-8.26,-6.51,1,0.0,1.2870126
1784070993908,0.22277994,0.9186928,0.11102396,-13.93,-6.65,-8.47,1,0.0,1.2870126
1784070993908,0.18910675,0.9162527,0.108339876,-17.78,-5.11,-9.87,1,0.0,1.2870126
1784070993908,0.107363835,0.90185624,0.106387794,-19.18,-2.94,-10.71,1,0.0,1.2870126
1784070993908,0.018300654,0.89209586,0.104435734,-18.34,-0.14,-11.27,1,0.0,1.2870126
1784070993908,-0.06954248,0.9182047,0.0951634,-16.31,2.66,-11.41,1,0.0,1.2870126
1784070994043,-0.10175163,0.9421177,0.13176471,-14.42,3.71,-11.62,1,0.0,1.2870126
1784070994043,-0.084915034,0.93650544,0.20057516,-8.75,1.89,-12.53,1,0.0,1.2870126
1784070994043,-0.0048801745,1.0170283,0.21057951,-3.01,-2.45,-13.02,1,0.0,1.2870126
1784070994043,0.039041396,1.0868148,0.21375164,5.32,-8.4,-12.67,1,0.0,1.2870126
1784070994043,0.022448802,1.1522092,0.13493682,13.09,-12.11,-10.78,1,0.0,1.2870126
1784070994043,0.028549021,1.1917386,0.058318082,20.93,-10.99,-8.19,1,0.0,1.2870126
1784070994043,0.08271895,1.1797822,0.11541612,23.17,-11.9,-5.81,1,0.0,1.2870126
1784070994043,0.13542484,1.2095512,0.09369934,25.83,-11.97,-2.8,1,0.0,1.2870126
1784070994062,0.20325926,1.2456645,0.09028322,29.960001,-11.13,0.77,1,0.0,1.2870126
1784070994062,0.27231374,1.2930022,0.18910675,31.29,-11.9,4.2,1,0.0,1.3348299
1784070994062,0.1844706,1.39939,0.2830501,27.09,-3.99,6.09,1,0.0,1.4395969
1784070994062,0.10028758,1.3932898,0.16397385,21.7,-6.37,9.7300005,1,0.0,1.4395969
1784070994062,-0.04660566,1.3091067,0.16421786,19.67,0.28,11.13,1,0.0,1.4395969
1784070994062,-0.14006099,1.2517647,0.30964705,3.57,-2.24,11.2,1,0.0,1.4395969
1784070994062,-0.110779956,1.2344401,0.24327669,-9.17,-9.66,11.13,1,0.0,1.4395969
1784070994062,-0.049045753,1.2134553,0.067102395,-11.83,-13.93,13.51,1,0.0,1.4395969
1784070994134,-0.09662745,1.2434684,0.029281046,-4.69,-12.67,18.41,1,0.0,1.4395969
1784070994134,-0.15762964,1.0873029,0.01512854,6.44,-7.42,17.64,2,12.0,1.4395969
1784070994134,-0.14664924,0.99213946,-0.008784314,6.09,-1.12,14.0,2,12.0,1.4395969
1784070994134,-0.01903268,0.92259693,0.27084967,-9.94,-1.05,11.97,2,12.0,1.4395969
1784070994134,0.09077124,0.9023442,0.4082266,-7.14,1.54,10.08,2,12.0,1.4395969
1784070994134,0.07979085,0.8776993,0.3787015,6.7200003,4.69,6.65,2,12.0,1.4395969
1784070994134,0.0026840959,0.82328546,0.38992593,3.92,3.57,4.06,2,12.0,1.4395969
1784070994134,-0.04611765,0.78790414,0.44092375,0.42000002,2.1,2.8,2,12.0,1.4395969
1784070994267,-0.07149455,0.78278,0.46166447,-4.13,-0.7,3.22,2,12.0,1.4395969
1784070994267,-0.10614379,0.79668844,0.43433553,-8.61,-5.67,5.81,2,12.0,1.4395969
1784070994267,-0.12005229,0.80742484,0.42725924,-11.27,-11.34,9.1,2,12.0,1.4395969
1784070994267,-0.16592592,0.8720872,0.40920264,-10.5,-17.29,13.09,2,12.0,1.4395969
1784070994267,-0.22766013,0.77570367,0.48923746,-13.93,-22.82,18.06,2,12.0,1.4395969
1784070994267,-0.23327233,0.9833551,0.39919823,-16.87,-26.6,23.24,2,12.0,1.4395969
1784070994267,-0.21741176,0.93870157,0.39236602,-10.43,-28.42,25.06,2,12.0,1.4395969
1784070994267,-0.21350762,0.8496383,0.34673637,3.5,-29.33,20.72,2,12.0,1.4395969
1784070994312,-0.19349891,1.0668061,0.2735338,8.96,-31.36,12.32,2,12.0,1.4395969
1784070994312,-0.15079738,1.1422048,0.29769063,-0.98,-35.420002,2.03,2,12.0,1.4395969
1784070994312,-0.12102832,0.97969496,0.34917647,-2.73,-38.920002,-9.59,2,12.0,1.4395969
1784070994312,-0.108095855,1.0248365,0.31745535,-4.55,-41.23,-18.69,2,12.0,1.4395969
1784070994312,-0.117124185,0.9777429,0.3303878,-4.97,-42.7,-24.85,2,12.0,1.4395969
1784070994312,-0.12908061,0.96529853,0.31306317,-5.53,-43.33,-28.7,2,12.0,1.4395969
1784070994312,-0.13908496,0.9655425,0.3162353,-8.82,-41.72,-29.82,2,12.0,1.4395969
1784070994312,-0.13200872,0.951878,0.30037472,-9.8,-39.62,-29.19,2,12.0,1.4395969
1784070994358,-0.13640088,0.9167408,0.2876863,-9.59,-38.5,-27.3,2,12.0,1.4395969
1784070994358,-0.121272326,0.8940479,0.27280176,-10.08,-37.94,-25.34,2,12.0,1.4395969
1784070994358,-0.12956862,0.85622656,0.252305,-9.94,-39.06,-23.59,2,12.0,1.4395969
1784070994358,-0.117856205,0.84329414,0.22912417,-7.63,-40.11,-22.4,2,12.0,1.4395969
1784070994358,-0.0924793,0.87184316,0.18129848,-1.96,-42.91,-22.19,2,12.0,1.4395969
1784070994358,-0.095895424,0.812061,0.22814815,-0.56,-43.75,-22.26,2,12.0,1.4395969
1784070994358,-0.094187364,0.840366,0.20887147,1.96,-44.73,-22.68,2,12.0,1.4395969
1784070994358,-0.15494554,0.7371503,0.27572984,7.0,-46.13,-23.66,2,12.0,1.4395969
1784070994448,-0.075886704,0.82718956,0.19764706,9.24,-45.78,-23.66,2,12.0,1.4395969
1784070994448,-0.06905446,0.8508584,0.18251853,11.97,-45.01,-23.87,2,12.0,1.4395969
1784070994448,-0.06197821,0.86354685,0.17495424,16.94,-43.82,-24.22,2,12.0,1.4395969
1784070994448,-0.040505446,0.867207,0.14884531,17.92,-41.79,-23.94,2,12.0,1.4395969
1784070994448,-0.039285403,0.8630588,0.14030501,14.0,-38.71,-23.03,2,12.0,1.4395969
1784070994448,-0.04001743,0.8542745,0.12761655,12.88,-35.98,-21.07,2,12.0,1.4395969
1784070994448,-0.033673204,0.85061437,0.11395206,12.11,-32.76,-18.55,2,12.0,1.4395969
1784070994448,-0.025620917,0.8891677,0.10321569,11.34,-29.4,-15.96,2,12.0,1.4395969
1784070994495,-0.018788671,0.89429194,0.0951634,7.56,-26.04,-13.37,2,12.0,1.4395969
1784070994495,-0.0019520697,0.90527236,0.099311545,2.24,-22.68,-10.01,2,12.0,1.4395969
1784070994495,0.018056644,0.9045403,0.09711547,-0.56,-19.88,-6.44,2,12.0,1.4395969
1784070994495,0.030989105,0.9128366,0.08223093,-3.15,-17.36,-3.15,2,12.0,1.4395969
1784070994495,0.03611329,0.9038083,0.064906314,-7.91,-15.75,-0.42000002,2,12.0,1.4395969
1784070994495,0.039529413,0.8867277,0.074666664,-11.83,-15.26,1.61,2,12.0,1.4395969
1784070994495,0.009272331,0.8908758,0.020008715,-12.81,-15.33,3.15,2,12.0,1.4395969
1784070994495,-0.030989105,0.8452462,0.05343791,-9.94,-17.99,4.48,2,12.0,1.4395969
1784070994583,-0.06515033,0.82816565,0.033429194,-5.32,-19.6,4.34,2,12.0,1.4395969
1784070994583,-0.087355115,0.86915904,0.029281046,12.88,-28.98,2.8,2,12.0,1.4395969
1784070994583,-0.15177341,0.82206535,0.08052288,4.2,-24.64,-0.49,2,12.0,1.4395969
1784070994583,-0.04001743,0.9584662,-0.012200436,16.38,-36.26,-3.15,2,12.0,1.4395969
1784070994583,-0.29866666,0.88062745,0.15348148,11.55,-25.06,-6.37,2,12.0,1.4395969
1784070994583,-0.34966448,0.924061,0.21131155,14.84,-15.89,-9.59,2,12.0,1.4395969
1784070994583,-0.2774379,0.9901873,0.23546842,21.14,-12.39,-13.93,2,12.0,1.4395969
1784070994583,-0.21057951,1.0507015,0.22326796,24.64,-9.59,-17.710001,2,12.0,1.4395969
1784070994673,-0.17031808,1.0729064,0.13810892,27.02,-7.07,-19.53,2,12.0,1.4395969
1784070994673,-0.10955991,1.0755905,0.04562963,29.47,-5.25,-20.58,2,12.0,1.4395969
1784070994673,-0.025864923,1.0563138,0.003416122,29.12,-6.51,-22.47,2,12.0,1.4395969
1784070994673,0.06783442,1.0001917,-0.00951634,23.8,-12.95,-24.64,2,12.0,1.4395969
1784070994673,0.031477123,0.9318693,0.079058826,17.15,-20.65,-24.64,2,12.0,1.4395969
1784070994673,-0.08345098,0.95675814,0.15592156,20.3,-28.35,-25.06,2,12.0,1.4395969
1784070994673,-0.17227016,0.9577342,0.11980827,36.19,-40.11,-26.53,2,12.0,1.4395969
1784070994673,-0.18910675,0.96822655,0.1232244,41.58,-47.18,-25.34,2,12.0,1.4395969
1784070994718,-0.19984314,1.064366,0.17324619,35.35,-47.39,-25.13,2,12.0,1.4395969
1784070994718,-0.25986928,1.0858388,0.28622222,34.79,-44.24,-25.34,2,12.0,1.4395969
1784070994718,-0.31428322,1.1448889,0.420427,46.83,-36.47,-24.99,2,12.0,1.4395969
1784070994718,-0.2488889,1.3615687,0.45288017,60.27,-23.38,-27.51,2,12.0,1.4563363
1784070994718,0.02098475,1.5626318,0.42335513,54.18,-17.22,-36.33,2,12.0,1.619101
1784070994718,0.07491068,1.5726361,0.33722004,37.66,-21.49,-46.76,2,12.0,1.619101
1784070994718,-0.06393028,1.4159826,0.4516601,20.09,-32.48,-53.97,2,12.0,1.619101
1784070994718,-0.17275818,1.3235033,0.4726449,11.83,-44.24,-58.87,2,12.0,1.619101
1784070994849,-0.25816122,1.1580653,0.47801307,2.8700001,-55.58,-60.48,2,12.0,1.619101
1784070994849,-0.26401743,1.0280087,0.4348235,4.97,-65.52,-58.87,3,18.0,1.619101
1784070994849,-0.23912853,0.9611503,0.391878,6.51,-73.85,-54.81,3,18.0,1.619101
1784070994849,-0.20277125,0.9362614,0.34795642,7.84,-79.45,-48.23,3,18.0,1.619101
1784070994849,-0.1481133,0.9160087,0.2993987,2.38,-80.43,-39.9,3,18.0,1.619101
1784070994849,-0.09467538,0.951878,0.25694117,1.26,-76.72,-29.82,3,18.0,1.619101
1784070994849,-0.016104575,1.0772985,0.18178649,3.64,-68.95,-18.9,3,18.0,1.619101
1784070994849,0.039285403,1.1780741,0.13566884,8.96,-58.8,-8.33,3,18.0,1.619101
1784070994937,0.11858824,1.2437124,0.121272326,13.37,-47.6,1.4,3,18.0,1.619101
1784070994937,0.20130719,1.231024,0.16372985,14.63,-38.43,8.89,3,18.0,1.619101
1784070994937,0.22863616,1.1871023,0.19545099,12.11,-32.83,13.16,3,18.0,1.619101
1784070994937,0.25328103,1.1143879,0.24425273,6.16,-31.99,15.4,4,24.0,1.619101
1784070994937,0.27011764,1.0189804,0.2584052,3.01,-32.48,14.77,4,24.0,1.619101
1784070994937,0.20350327,0.99384755,0.23107626,2.52,-33.95,12.81,4,24.0,1.619101
1784070994937,0.14957735,0.924793,0.24937691,1.54,-35.14,11.13,4,24.0,1.619101
1784070994937,0.09443137,0.87184316,0.2210719,3.15,-35.07,10.43,4,24.0,1.619101
1784070994958,0.085403055,0.841098,0.19447495,1.89,-35.98,10.92,4,24.0,1.619101
1784070994958,0.050265793,0.79205227,0.1822745,2.17,-35.49,11.9,4,24.0,1.619101
1784070994958,0.03025708,0.7581351,0.17178214,2.24,-33.6,13.72,4,24.0,1.619101
1784070994958,0.028793028,0.7300741,0.1566536,3.08,-31.43,15.33,4,24.0,1.619101
1784070994958,0.01146841,0.7442266,0.14908932,5.7400002,-29.05,17.01,4,24.0,1.619101
1784070994958,-0.008296296,0.74715465,0.15567756,10.36,-26.67,18.62,4,24.0,1.619101
1784070994958,-0.021960784,0.79986054,0.14860131,15.61,-25.48,19.18,4,24.0,1.619101
1784070994958,-0.0363573,0.8071808,0.14225708,16.17,-24.78,18.34,4,24.0,1.619101
1784070995033,-0.030745098,0.8054728,0.11834422,17.15,-25.9,16.1,4,24.0,1.619101
1784070995033,-0.032453157,0.8066928,0.124200426,20.09,-27.44,13.51,4,24.0,1.619101
1784070995033,0.013420479,0.82206535,0.09857952,23.59,-30.73,10.92,4,24.0,1.619101
1784070995033,0.023424836,0.7952244,0.08711111,30.24,-33.25,7.07,4,24.0,1.619101
1784070995033,0.03562527,0.8442701,0.067102395,29.82,-35.35,4.34,4,24.0,1.619101
1784070995033,0.03196514,0.8371939,0.062222224,22.19,-37.31,1.33,4,24.0,1.619101
1784070995033,0.029281046,0.83426577,0.050265793,16.87,-38.920002,-2.17,4,24.0,1.619101
1784070995033,0.030745098,0.84622216,0.06344226,11.9,-40.18,-5.04,4,24.0,1.619101
1784070995169,0.032941177,0.83572984,0.08027887,7.4900002,-41.09,-7.28,4,24.0,1.619101
1784070995169,0.04953377,0.8501264,0.081498906,1.47,-41.79,-8.75,4,24.0,1.619101
1784070995169,0.084915034,0.8567146,0.10199564,-8.61,-42.35,-9.7300005,4,24.0,1.619101
1784070995169,0.12249237,0.86110675,0.06466231,-16.03,-42.14,-11.34,4,24.0,1.619101
1784070995169,0.20789543,0.86037475,0.09077124,-23.59,-41.3,-13.09,4,24.0,1.619101
1784070995169,0.26352942,0.8545185,0.124200426,-31.5,-39.76,-14.49,4,24.0,1.619101
1784070995169,0.30013072,0.8711111,0.12249237,-40.88,-37.31,-14.84,4,24.0,1.619101
1784070995169,0.26499346,0.8769674,0.20887147,-47.39,-31.85,-13.51,4,24.0,1.619101
1784070995212,0.16641395,0.9055164,0.13103268,-51.8,-22.75,-10.85,4,24.0,1.619101
1784070995212,0.08589107,0.95114595,0.13493682,-50.68,-12.95,-8.61,4,24.0,1.619101
1784070995212,0.117124185,0.95505005,0.1261525,-27.65,-3.78,-10.57,4,24.0,1.619101
1784070995212,0.23083223,0.953342,0.13786492,-28.07,-6.02,-13.65,4,24.0,1.619101
1784070995212,0.2996427,1.0641221,0.2074074,-15.82,-14.35,-16.31,4,24.0,1.619101
1784070995212,0.24742483,1.2036949,0.15982571,5.32,-22.26,-15.47,4,24.0,1.619101
1784070995212,0.15104139,1.2442003,0.06612636,22.12,-26.6,-12.11,4,24.0,1.619101
1784070995212,0.04733769,1.2739694,0.023424836,24.92,-32.55,-7.07,4,24.0,1.619101
1784070995258,-4.8801742E-4,1.3120348,0.046361655,25.06,-38.43,2.38,4,24.0,1.619101
1784070995258,0.04172549,1.3691329,-0.019276688,37.31,-38.08,14.14,4,24.0,1.619101
1784070995258,0.1285926,1.3788933,0.006832244,39.9,-24.64,22.960001,4,24.0,1.619101
1784070995258,0.042945534,1.344244,0.21643573,25.41,-14.42,27.23,4,24.0,1.619101
1784070995258,0.01903268,1.3403399,0.07661873,25.55,-7.14,29.89,4,24.0,1.619101
1784070995258,-4.8801742E-4,1.2995905,0.08174292,18.76,4.62,29.19,4,24.0,1.619101
1784070995258,0.051729847,1.2410283,0.32477558,3.3600001,0.98,24.22,4,24.0,1.619101
1784070995258,0.02269281,1.1878345,0.224488,2.73,-5.18,17.29,4,24.0,1.619101
1784070995303,0.098091505,1.2476165,0.121272326,24.710001,-3.92,14.42,4,24.0,1.619101
1784070995303,0.07783878,1.3879216,0.2210719,32.69,-8.82,19.6,4,24.0,1.619101
1784070995303,-0.13396078,1.4167147,0.15860566,31.5,-10.08,28.14,4,24.0,1.619101
1784070995303,-0.28963834,1.2305359,0.03025708,18.2,-11.55,31.36,4,24.0,1.619101
1784070995303,-0.13908496,1.0380131,0.21765578,-13.02,-12.67,31.99,5,30.0,1.619101
1784070995303,0.007808279,0.99262744,0.34063616,-9.38,-12.18,32.41,5,30.0,1.619101
1784070995303,0.049777776,0.9899433,0.43311545,0.77,-11.2,31.85,5,30.0,1.619101
1784070995303,0.039529413,0.97261876,0.46361658,0.14,-8.54,31.710001,5,30.0,1.619101
1784070995393,0.021228759,0.91844887,0.5355991,-3.01,-6.44,30.8,5,30.0,1.619101
1784070995393,-0.044165578,0.8630588,0.5255948,-6.7200003,-6.02,29.19,5,30.0,1.619101
1784070995393,-0.08418301,0.8323137,0.48655337,-10.85,-7.77,27.37,5,30.0,1.619101
1784070995393,-0.13054466,0.79864055,0.49484965,-15.75,-9.59,25.83,5,30.0,1.619101
1784070995393,-0.19349891,0.8376819,0.4680087,-19.32,-11.83,25.9,5,30.0,1.619101
1784070995393,-0.1905708,0.9033202,0.3691852,-13.93,-21.42,27.51,5,30.0,1.619101
1784070995393,-0.2435207,0.7517909,0.3730893,-15.26,-21.28,28.07,5,30.0,1.619101
1784070995393,-0.17056209,0.88135946,0.4123747,6.09,-22.33,24.78,5,30.0,1.619101
1784070995483,-0.16031373,1.2173594,0.3340479,3.64,-23.59,18.83,5,30.0,1.619101
1784070995483,-0.04343355,1.3156949,0.21887583,-0.49,-36.61,11.2,5,30.0,1.619101
1784070995483,-0.1627538,1.1041394,0.3330719,-13.93,-28.210001,-0.21000001,6,36.0,1.619101
1784070995483,-0.15616558,1.034841,0.28353813,-21.77,-27.3,-10.99,6,36.0,1.619101
1784070995483,-0.17544226,0.9694466,0.31184313,-19.88,-33.39,-22.54,6,36.0,1.619101
1784070995483,-0.20203921,0.92162085,0.2747538,-19.11,-35.84,-29.05,6,36.0,1.619101
1784070995483,-0.24230066,0.895512,0.27499783,-22.68,-35.07,-32.83,6,36.0,1.619101
1784070995483,-0.22717212,0.8591547,0.26450545,-24.99,-35.77,-34.58,6,36.0,1.619101
1784070995529,-0.1932549,0.8208453,0.25401306,-22.82,-36.68,-34.72,6,36.0,1.619101
1784070995529,-0.16348584,0.8015686,0.25425708,-21.07,-36.89,-33.18,6,36.0,1.619101
1784070995529,-0.14982136,0.7610632,0.23278432,-19.32,-35.49,-30.94,6,36.0,1.619101
1784070995529,-0.13274074,0.7427625,0.21692374,-16.38,-34.93,-28.77,6,36.0,1.619101
1784070995529,-0.09955555,0.73739433,0.20838344,-12.25,-34.72,-26.95,6,36.0,1.619101
1784070995529,-0.08101089,0.75691503,0.19959912,-6.16,-34.44,-25.55,6,36.0,1.619101
1784070995529,-0.05099782,0.74642265,0.1905708,1.61,-34.65,-24.01,6,36.0,1.619101
1784070995529,-0.011712418,0.7500828,0.17568627,5.46,-34.58,-23.31,6,36.0,1.619101
1784070995656,0.025132896,0.77253157,0.17178214,8.89,-34.3,-23.17,6,36.0,1.619101
1784070995656,0.015616558,0.7883921,0.15543355,17.57,-33.670002,-23.52,6,36.0,1.619101
1784070995656,0.033673204,0.81864923,0.15714161,21.56,-32.2,-23.87,6,36.0,1.619101
1784070995656,0.044409584,0.85110235,0.14982136,21.07,-30.24,-23.38,6,36.0,1.619101
1784070995656,0.05685403,0.84890634,0.13396078,19.88,-28.28,-21.77,6,36.0,1.619101
1784070995656,0.03538126,0.8547625,0.11810021,15.54,-25.06,-19.11,6,36.0,1.619101
1784070995656,0.039285403,0.8493943,0.09687146,15.190001,-21.56,-15.47,6,36.0,1.619101
1784070995656,0.026108934,0.86354685,0.08345098,11.27,-17.29,-10.71,6,36.0,1.619101
1784070995707,0.032941177,0.8711111,0.06734641,6.86,-12.88,-5.53,6,36.0,1.619101
1784070995707,0.024156863,0.8701351,0.05661002,3.92,-8.68,-0.56,6,36.0,1.619101
1784070995707,0.021472767,0.8720872,0.051729847,0.98,-4.69,3.92,6,36.0,1.619101
1784070995707,0.01903268,0.87623525,0.039529413,-3.01,-0.98,7.4900002,6,36.0,1.619101
1784070995707,0.023180827,0.8820915,0.005124183,-8.89,2.1,10.36,6,36.0,1.619101
1784070995707,0.009760349,0.8711111,-0.024888888,-14.42,4.55,12.46,6,36.0,1.619101
1784070995707,-0.010004357,0.8437821,-0.024156863,-17.57,7.0,14.14,6,36.0,1.619101
1784070995707,-0.050509803,0.8249935,-0.051973857,-17.15,8.96,14.56,6,36.0,1.619101
1784070995754,-0.07783878,0.8003486,-0.059538126,-13.2300005,9.59,14.0,6,36.0,1.619101
1784070995754,-0.12761655,0.75545096,-0.0073202616,-8.05,11.83,12.74,6,36.0,1.619101
1784070995754,-0.20813943,0.76594335,0.03806536,-1.82,15.96,11.06,6,36.0,1.619101
1784070995754,-0.11346405,0.80571675,0.14786929,10.36,13.3,8.82,6,36.0,1.619101
1784070995754,-0.28549019,0.7976645,0.30476686,14.9800005,18.9,5.81,6,36.0,1.619101
1784070995754,-0.1878867,0.92698914,0.32599562,21.14,24.5,2.52,6,36.0,1.619101
1784070995754,-0.21838781,1.0241046,0.34039217,26.53,30.380001,0.98,6,36.0,1.619101
1784070995754,-0.24766885,1.1034074,0.23254031,35.14,37.38,1.05,6,36.0,1.619101
1784070995843,-0.22424401,1.1163399,0.06344226,44.73,39.41,1.61,6,36.0,1.619101
1784070995843,-0.033673204,1.1831982,-0.11810021,54.95,26.74,-2.24,6,36.0,1.619101
1784070995843,0.13176471,1.1397647,-0.12176035,46.34,15.75,-13.51,6,36.0,1.619101
1784070995843,0.16568191,1.0524096,0.013420479,35.63,-1.47,-25.48,6,36.0,1.619101
1784070995843,-0.108339876,1.0733943,0.19081481,40.46,-15.33,-35.49,6,36.0,1.619101
1784070995843,-0.42530718,1.2329761,0.22058389,49.21,-17.92,-44.8,6,36.0,1.619101
1784070995843,-0.45434424,1.317647,0.06612636,41.65,-19.6,-51.03,6,36.0,1.619101
1784070995843,-0.42481914,1.2524967,0.016592592,35.35,-25.69,-50.82,6,36.0,1.619101
1784070995933,-0.3977342,1.3249674,0.23180829,24.22,-25.55,-48.02,6,36.0,1.619101
1784070995933,-0.44726795,1.2673812,0.4226231,24.22,-17.710001,-39.76,6,36.0,1.619101
1784070995933,-0.41383877,1.3849934,0.45727232,38.08,-6.93,-32.2,6,36.0,1.619101
1784070995933,-0.22961222,1.5445751,0.49167755,45.5,4.83,-29.82,6,36.0,1.6371257
1784070995933,0.016592592,1.5726361,0.40456644,46.97,8.61,-33.25,6,36.0,1.6371257
1784070995933,0.14494118,1.4093943,0.46996078,27.72,6.65,-36.89,6,36.0,1.6371257
1784070995933,0.10248367,1.2110153,0.531939,1.61,-2.8700001,-41.86,6,36.0,1.6371257
1784070995933,0.06685839,1.1187799,0.5094902,-7.98,-14.77,-49.56,6,36.0,1.6371257
1784070995979,0.044653594,1.0175164,0.4992418,-10.78,-24.85,-56.28,7,42.0,1.6371257
1784070995979,-0.027084969,0.95114595,0.45800436,-7.77,-33.39,-58.24,7,42.0,1.6371257
1784070995979,-0.053925924,0.8991721,0.42677125,-1.61,-39.2,-57.89,7,42.0,1.6371257
1784070995979,-0.13322876,0.8755033,0.33380392,-0.21000001,-39.83,-53.13,7,42.0,1.6371257
1784070995979,-0.1595817,0.9491939,0.31257516,-6.16,-38.29,-42.84,7,42.0,1.6371257
1784070995979,-0.15104139,0.9628584,0.28353813,-6.79,-32.69,-29.82,7,42.0,1.6371257
1784070995979,-0.12761655,1.0577778,0.18642265,-3.99,-24.15,-15.33,7,42.0,1.6371257
1784070995979,-0.05661002,1.1119477,0.17593028,0.84000003,-14.7,0.42000002,7,42.0,1.6371257
1784070996068,0.03611329,1.121464,0.17105012,7.4900002,-4.13,14.56,7,42.0,1.6371257
1784070996068,0.13078867,1.1553812,0.17544226,9.94,4.83,24.99,7,42.0,1.6371257
1784070996068,0.18398258,1.0751023,0.24254465,5.95,9.87,30.94,7,42.0,1.6371257
1784070996068,0.21814379,0.99726367,0.26523748,0.0,13.09,32.34,7,42.0,1.6371257
1784070996068,0.20545535,0.94284964,0.25816122,-2.94,12.6,31.78,7,42.0,1.6371257
1784070996068,0.2691416,0.86476684,0.23083223,-4.13,12.74,31.64,7,42.0,1.6371257
1784070996068,0.15640959,0.8654989,0.21911982,-3.29,9.7300005,29.33,7,42.0,1.6371257
1784070996068,0.10199564,0.8064488,0.20496733,-2.8700001,8.61,26.460001,7,42.0,1.6371257
1784070996158,0.076374725,0.78302395,0.19349891,-1.19,7.63,24.57,7,42.0,1.6371257
1784070996158,0.060758173,0.756427,0.1820305,0.56,6.23,23.17,7,42.0,1.6371257
1784070996158,0.030745098,0.728854,0.17519826,0.56,5.18,22.05,7,42.0,1.6371257
1784070996158,-0.006100218,0.7127495,0.16836601,1.89,4.48,20.79,7,42.0,1.6371257
1784070996158,-0.04514161,0.726658,0.15738562,2.03,3.57,19.6,7,42.0,1.6371257
1784070996158,-0.0588061,0.6924967,0.14957735,6.16,3.5,17.99,7,42.0,1.6371257
1784070996158,-0.07735076,0.7334902,0.12542048,15.68,3.3600001,16.1,7,42.0,1.6371257
1784070996158,-0.1146841,0.7669194,0.11907625,18.97,2.31,14.84,7,42.0,1.6371257
1784070996204,-0.11639216,0.755939,0.12566449,19.53,-0.14,13.86,7,42.0,1.6371257
1784070996204,-0.13371678,0.7708235,0.10419172,22.61,-3.15,12.53,7,42.0,1.6371257
1784070996204,-0.12688452,0.7957124,0.10687582,22.4,-7.0,11.4800005,7,42.0,1.6371257
1784070996204,-0.12664051,0.8054728,0.10321569,19.18,-10.5,10.01,7,42.0,1.6371257
1784070996204,-0.09979956,0.81328106,0.10589978,14.9800005,-13.79,8.12,7,42.0,1.6371257
1784070996204,-0.06734641,0.8293856,0.10321569,10.85,-15.68,5.95,7,42.0,1.6371257
1784070996204,-0.03025708,0.85720265,0.11273203,5.81,-16.31,3.29,7,42.0,1.6371257
1784070996204,-0.0036601308,0.85866666,0.11639216,-0.42000002,-16.17,-0.77,7,42.0,1.6371257
1784070996295,0.22644009,0.6944488,0.14372113,-6.51,-15.96,-4.41,7,42.0,1.6371257
1784070996295,0.100531586,0.86745095,0.08027887,-15.05,-19.11,-8.47,7,42.0,1.6371257
1784070996295,0.017568627,0.9740828,0.014152505,-21.84,-10.22,-11.97,7,42.0,1.6371257
1784070996295,0.14640523,0.85769063,0.07027451,-34.02,-17.5,-13.51,7,42.0,1.6371257
1784070996295,0.13542484,0.8442701,0.056122,-40.53,-20.09,-14.91,7,42.0,1.6371257
1784070996295,0.096383445,0.8459782,0.07881482,-41.86,-17.92,-15.82,7,42.0,1.6371257
1784070996295,0.029769063,0.8703791,0.109071895,-37.24,-12.88,-15.75,7,42.0,1.6371257
1784070996295,0.012932462,0.923573,0.11322004,-26.04,-8.05,-15.54,7,42.0,1.6371257
1784070996339,0.102239646,1.0165403,0.2681656,-6.51,-9.94,-16.59,7,42.0,1.6371257
1784070996339,0.16958606,1.0536296,0.19520697,19.81,-16.38,-16.03,7,42.0,1.6371257
1784070996339,0.1232244,1.1446449,0.20935948,25.34,-26.6,-11.41,7,42.0,1.6371257
1784070996339,0.010492375,1.2978824,0.114196084,47.53,-29.89,-4.83,7,42.0,1.6371257
1784070996339,-0.08979521,1.2859259,-0.00756427,60.06,-26.53,2.1,7,42.0,1.6371257
1784070996339,-0.2740218,1.2151634,-0.025376907,44.73,-21.07,7.56,7,42.0,1.6371257
1784070996339,-0.31428322,1.1380566,-0.08881917,10.64,-13.93,11.2,8,48.0,1.6371257
1784070996339,-0.15079738,1.032157,0.0070762527,-13.16,-5.6,12.95,8,48.0,1.6371257
1784070996473,0.103947714,1.1063355,0.09662745,-0.07,11.13,15.26,8,48.0,1.6371257
1784070996473,0.3113551,1.1849064,0.25572112,27.65,23.59,16.38,8,48.0,1.6371257
1784070996473,0.25132897,1.2622571,0.24498475,30.03,29.26,17.01,8,48.0,1.6371257
1784070996473,0.14640523,1.286902,0.2552331,27.16,31.15,16.73,8,48.0,1.6371257
1784070996473,0.012200436,1.3906057,0.30501089,30.45,26.81,17.85,8,48.0,1.6371257
1784070996473,-0.11932026,1.4508758,0.42921135,38.43,13.37,20.72,8,48.0,1.6371257
1784070996473,-0.21033551,1.4650284,0.27182573,42.420002,2.66,24.85,8,48.0,1.6371257
1784070996473,-0.3298998,1.3869455,0.10858388,23.03,-8.68,31.01,8,48.0,1.6371257
1784070996519,-0.20716341,1.2429804,0.2686536,-7.14,-16.31,36.05,8,48.0,1.6371257
1784070996519,-0.07417865,1.1863704,0.29744664,-16.87,-13.65,39.9,8,48.0,1.6371257
1784070996519,-0.01708061,1.0960872,0.41261876,-7.91,-6.02,41.86,9,54.0,1.6371257
1784070996519,0.021716775,1.0048279,0.5133943,-3.15,2.38,42.14,9,54.0,1.6371257
1784070996519,0.03586928,0.89868414,0.49826577,-7.0,9.59,41.79,9,54.0,1.6371257
1784070996519,0.02098475,0.77960783,0.46434858,-11.62,14.63,39.69,9,54.0,1.6371257
1784070996519,-0.005856209,0.7086013,0.42067102,-17.22,16.94,37.170002,9,54.0,1.6371257
1784070996519,-0.03611329,0.6785882,0.3662571,-19.95,16.73,34.72,9,54.0,1.6371257
1784070996564,-0.052705884,0.7025011,0.33380392,-19.18,14.84,32.41,9,54.0,1.6371257
1784070996564,-0.048801742,0.70762527,0.3413682,-9.1,12.67,29.26,9,54.0,1.6371257
1784070996564,-0.006100218,0.7613072,0.3418562,16.73,11.83,24.64,9,54.0,1.6371257
1784070996564,-0.06734641,1.1278083,0.17837037,18.9,7.35,19.460001,9,54.0,1.6371257
1784070996564,-0.034893245,1.3361917,0.4038344,1.33,6.93,12.74,9,54.0,1.6371257
1784070996564,-0.09613943,1.3469281,0.23888454,-0.42000002,6.65,3.92,9,54.0,1.6371257
1784070996564,-0.15494554,1.2151634,0.22058389,-4.97,1.89,-5.6,9,54.0,1.6371257
1784070996564,-0.19984314,1.0931591,0.26352942,-6.93,-2.59,-13.58,10,60.0,1.6371257
1784070996653,-0.25596514,1.0343529,0.26889762,-5.32,-3.78,-18.62,10,60.0,1.6371257
1784070996653,-0.28427014,1.0409412,0.24693681,-6.79,-4.76,-21.49,10,60.0,1.6371257
1784070996653,-0.29573858,0.980915,0.24937691,-11.4800005,-3.29,-20.44,10,60.0,1.6371257
1784070996653,-0.27597386,0.9355294,0.2405926,-15.54,-3.15,-18.48,10,60.0,1.6371257
1784070996653,-0.22644009,0.89258385,0.23790848,-18.83,-3.64,-16.03,10,60.0,1.6371257
1784070996653,-0.195695,0.85159045,0.22961222,-20.16,-4.41,-13.51,10,60.0,1.6371257
1784070996653,-0.16348584,0.838658,0.21155554,-18.27,-5.81,-12.18,10,60.0,1.6371257
1784070996653,-0.13005665,0.9182047,0.14738126,-10.78,-7.56,-12.04,10,60.0,1.6371257
1784070996785,-0.08881917,0.83524185,0.19642702,-9.24,-8.82,-11.27,10,60.0,1.6371257
1784070996785,-0.07491068,0.839878,0.1849586,-5.11,-10.15,-11.83,10,60.0,1.6371257
1784070996785,-0.0419695,0.8166972,0.18520261,-3.92,-10.64,-13.51,10,60.0,1.6371257
1784070996785,-0.03025708,0.8201133,0.17861438,-2.59,-10.64,-15.82,10,60.0,1.6371257
1784070996785,-0.015616558,0.83597386,0.14884531,0.84000003,-10.99,-18.2,10,60.0,1.6371257
1784070996785,-0.033673204,0.8064488,0.16690196,1.6800001,-10.99,-19.67,10,60.0,1.6371257
1784070996785,-0.031233115,0.81303704,0.13249673,2.31,-10.78,-20.3,10,60.0,1.6371257
1784070996785,-0.039773423,0.83426577,0.11517211,-0.7,-9.59,-20.3,10,60.0,1.6371257
1784070996833,-0.03562527,0.80254465,0.095895424,0.42000002,-7.91,-18.83,10,60.0,1.6371257
1784070996833,-0.027816994,0.81401306,0.0812549,-4.2,-5.25,-16.1,10,60.0,1.6371257
1784070996833,-0.035137255,0.79449236,0.07369063,-7.56,-2.66,-13.16,10,60.0,1.6371257
1784070996833,-0.027084969,0.812793,0.060758173,-9.24,-0.07,-9.52,10,60.0,1.6371257
1784070996833,-0.01708061,0.79864055,0.06319825,-11.9,2.94,-5.25,10,60.0,1.6371257
1784070996833,-0.0026840959,0.79351634,0.04514161,-16.8,5.53,-0.91,10,60.0,1.6371257
1784070996833,0.021472767,0.80327666,0.034893245,-20.79,7.0,3.15,10,60.0,1.6371257
1784070996833,0.030989105,0.8076688,-0.011956427,-22.05,8.05,6.44,10,60.0,1.6371257
1784070996879,-0.00951634,0.7898562,-0.053193897,-23.03,8.05,9.38,10,60.0,1.6371257
1784070996879,-0.04026144,0.74593467,-0.051973857,-22.05,7.84,12.25,10,60.0,1.6371257
1784070996879,-0.12664051,0.71421355,-0.015372549,-17.85,7.56,14.77,10,60.0,1.6371257
1784070996879,-0.20691939,0.70567316,0.030745098,-10.71,9.03,16.03,10,60.0,1.6371257
1784070996879,-0.24254465,0.70982134,0.14396514,-2.66,12.74,16.8,10,60.0,1.6371257
1784070996879,-0.18569063,0.757403,0.21741176,4.27,12.67,15.61,10,60.0,1.6371257
1784070996879,-0.10248367,0.8425621,0.2632854,6.51,10.92,11.97,10,60.0,1.6371257
1784070996879,0.03391721,0.9750588,0.23693246,15.82,-0.14,8.82,10,60.0,1.6371257
1784070997014,-0.089551196,0.9835992,0.34258825,7.91,6.86,7.98,10,60.0,1.6371257
1784070997014,-0.12346841,1.0785185,0.23668844,10.36,15.4,9.03,10,60.0,1.6371257
1784070997014,-0.11980827,1.1797822,0.07198257,19.04,13.3,8.75,10,60.0,1.6371257
1784070997014,-0.17544226,1.2171154,0.06393028,15.33,19.04,2.38,10,60.0,1.6371257
1784070997014,-0.0922353,1.1827103,0.04026144,16.87,17.29,-6.86,11,66.0,1.6371257
1784070997014,-0.044897605,1.0724183,-0.07613072,19.95,3.22,-16.03,11,66.0,1.6371257
1784070997014,-0.07125054,0.9862832,0.0021960784,18.97,-12.67,-23.1,11,66.0,1.6371257
1784070997014,-0.20862745,1.0345969,0.21350762,22.89,-19.88,-29.82,11,66.0,1.6371257
1784070997100,-0.37845752,1.1153638,0.20496733,30.52,-20.58,-35.63,11,66.0,1.6371257
1784070997100,-0.44970804,1.1683137,0.111999996,20.58,-18.34,-38.71,11,66.0,1.6371257
1784070997100,-0.42481914,1.1207321,0.1263965,16.31,-14.84,-36.82,11,66.0,1.6371257
1784070997100,-0.36869717,1.1673377,0.1734902,25.9,-13.86,-33.53,11,66.0,1.6371257
1784070997100,-0.27206972,1.232,0.43823963,33.88,-5.6,-31.15,11,66.0,1.6371257
1784070997100,-0.16885403,1.3659607,0.47606102,44.73,8.75,-28.98,11,66.0,1.6371257
1784070997100,0.061490197,1.5575076,0.3308758,56.420002,13.79,-32.13,11,66.0,1.6371257
1784070997100,0.17837037,1.5789804,0.32721567,51.8,16.03,-38.57,11,66.0,1.6371257
1784070997115,0.06856645,1.3859695,0.36967322,26.95,10.78,-42.35,11,66.0,1.6371257
1784070997115,-0.07661873,1.2415164,0.4333595,7.77,1.82,-45.22,11,66.0,1.6371257
1784070997115,-0.15372549,1.1439128,0.4455599,0.28,-7.14,-48.79,11,66.0,1.6371257
1784070997115,-0.1542135,1.0433812,0.44067973,-6.37,-14.9800005,-51.73,12,72.0,1.6371257
1784070997115,-0.17739433,0.96017426,0.4287233,-12.39,-21.56,-51.87,12,72.0,1.6371257
1784070997115,-0.17446622,0.86745095,0.40285838,-12.95,-25.9,-49.84,12,72.0,1.6371257
1784070997115,-0.17031808,0.7922963,0.3691852,-13.72,-26.460001,-46.13,12,72.0,1.6371257
1784070997115,-0.14323312,0.79839647,0.3211155,-14.63,-24.36,-40.39,12,72.0,1.6371257
1784070997193,-0.085403055,0.8381699,0.3181874,-19.18,-20.37,-33.53,12,72.0,1.6371257
1784070997193,-0.04514161,0.9618824,0.252793,-14.21,-14.35,-24.64,12,72.0,1.6371257
1784070997193,-0.020008715,1.0694902,0.23327233,-10.15,-6.7200003,-13.440001,12,72.0,1.6371257
1784070997193,0.054413944,1.148305,0.21204355,-1.19,1.75,-1.05,12,72.0,1.6371257
1784070997193,0.10492375,1.1556252,0.18935075,4.55,10.29,9.94,12,72.0,1.6371257
1784070997193,0.13859694,1.149281,0.21082354,5.18,16.24,18.2,12,72.0,1.6371257
1784070997193,0.15348148,1.1107277,0.24230066,0.07,18.27,24.64,12,72.0,1.6371257
1784070997193,0.1627538,0.99994767,0.2571852,-9.17,17.710001,27.72,12,72.0,1.6371257
1784070997238,0.16861002,0.9206449,0.22839217,-13.79,15.61,27.16,12,72.0,1.6371257
1784070997238,0.13786492,0.88062745,0.21301961,-15.4,13.16,23.87,12,72.0,1.6371257
1784070997238,0.098091505,0.8601307,0.20716341,-14.49,10.85,20.37,12,72.0,1.6371257
1784070997238,0.039773423,0.8203573,0.19398694,-11.4800005,9.38,17.85,12,72.0,1.6371257
1784070997238,0.015860565,0.812061,0.16080175,-9.1,9.03,17.15,12,72.0,1.6371257
1784070997238,-0.0107363835,0.79912853,0.1459172,-7.91,10.01,17.15,12,72.0,1.6371257
1784070997238,-0.037577342,0.812793,0.1371329,-8.19,11.62,18.2,12,72.0,1.6371257
1784070997238,-0.068810456,0.76203924,0.11858824,-7.28,14.21,18.27,12,72.0,1.6371257
1784070997329,-0.085403055,0.7264139,0.11858824,-4.13,16.87,17.29,12,72.0,1.6371257
1784070997329,-0.09857952,0.7322701,0.1037037,-3.08,18.48,15.12,12,72.0,1.6371257
1784070997329,-0.10589978,0.7225098,0.10614379,3.85,19.6,12.95,12,72.0,1.6371257
1784070997329,-0.108339876,0.7229978,0.11053595,7.98,19.53,10.64,12,72.0,1.6371257
1784070997329,-0.10785185,0.7249499,0.10345969,10.29,17.43,8.75,12,72.0,1.6371257
1784070997329,-0.09565142,0.74593467,0.08515904,12.25,13.37,7.4900002,12,72.0,1.6371257
1784070997329,-0.09345534,0.756183,0.078570805,10.99,8.68,5.81,12,72.0,1.6371257
1784070997329,-0.08589107,0.7427625,0.052461874,10.29,3.85,2.8700001,12,72.0,1.6371257
1784070997415,-0.08467103,0.7427625,0.04782571,7.07,-0.21000001,-0.77,12,72.0,1.6371257
1784070997415,-0.097603485,0.7671634,0.037333332,3.57,-3.92,-4.83,12,72.0,1.6371257
1784070997415,-0.11297604,0.77985185,0.037577342,-0.49,-7.4900002,-8.61,12,72.0,1.6371257
1784070997415,-0.12078431,0.79424834,0.037333332,-5.88,-10.92,-12.11,12,72.0,1.6371257
1784070997415,-0.116636164,0.7976645,0.03562527,-10.36,-14.84,-15.61,12,72.0,1.6371257
1784070997415,-0.13249673,0.78790414,0.010004357,-14.42,-17.99,-19.04,12,72.0,1.6371257
1784070997415,-0.111999996,0.7861961,0.032941177,-18.34,-21.98,-21.98,12,72.0,1.6371257
1784070997415,-0.08979521,0.79693246,0.06197821,-22.19,-23.8,-23.94,12,72.0,1.6371257
1784070997465,-0.09150327,0.8247494,0.018300654,-24.29,-22.47,-24.57,12,72.0,1.6371257
1784070997465,-0.07491068,0.81230503,0.016592592,-24.08,-19.32,-24.5,12,72.0,1.6371257
1784070997465,-0.048069715,0.84475815,0.10980393,-19.74,-15.26,-24.01,12,72.0,1.6371257
1784070997465,-0.006832244,0.7869281,-0.050021786,-15.12,-8.54,-22.12,12,72.0,1.6371257
1784070997465,0.08247495,0.7737516,0.025620917,-20.23,-2.24,-17.85,12,72.0,1.6371257
1784070997465,0.1568976,0.7727756,0.095407404,-18.13,2.66,-12.25,12,72.0,1.6371257
1784070997465,0.21228758,0.7788758,0.15811765,-8.4,6.23,-6.51,12,72.0,1.6371257
1784070997465,0.2466928,0.77497166,0.280366,1.96,6.51,-1.12,12,72.0,1.6371257
1784070997553,0.25059694,0.7583791,0.44165578,16.66,0.91,2.17,12,72.0,1.6371257
1784070997553,0.09662745,0.7491067,0.39090198,29.19,-7.14,2.8,12,72.0,1.6371257
1784070997553,-0.062222224,0.7232418,0.26889762,29.960001,-17.85,2.59,12,72.0,1.6371257
1784070997553,-0.19447495,0.7251939,0.044653594,23.31,-28.0,3.78,12,72.0,1.6371257
1784070997553,-0.28378212,0.700793,-0.11126798,10.36,-34.23,4.55,12,72.0,1.6371257
1784070997553,-0.22082789,0.67395204,-0.14494118,-1.05,-31.57,4.48,12,72.0,1.6371257
1784070997553,-0.0922353,0.68420047,-0.18861873,-0.07,-21.42,5.39,12,72.0,1.6371257
1784070997553,0.038309366,0.7166536,-0.15860566,8.47,-11.06,7.07,12,72.0,1.6371257
1784070997599,0.15079738,0.83890194,-0.22326796,15.12,-2.8700001,10.01,12,72.0,1.6371257
1784070997599,0.20374727,0.924305,-0.23839653,5.95,8.19,14.21,12,72.0,1.6371257
1784070997599,0.23790848,0.90844446,-0.21594772,-8.47,13.51,16.52,12,72.0,1.6371257
1784070997599,0.24230066,0.93918955,-0.2637734,-10.01,19.460001,16.24,12,72.0,1.6371257
1784070997599,0.20008714,0.9535861,-0.29842266,1.82,25.76,13.09,12,72.0,1.6371257
1784070997599,0.1566536,0.9940915,-0.30647492,14.07,23.94,8.89,12,72.0,1.6371257
1784070997599,0.22058389,0.92332894,0.22863616,25.97,17.29,4.27,12,72.0,1.6371257
1784070997599,0.3613769,0.9099085,0.59147716,60.06,15.47,2.17,12,72.0,1.6371257
1784070997688,0.21057951,1.1331764,0.24132463,87.5,13.72,10.85,12,72.0,1.6371257
1784070997688,-0.1456732,1.2132113,0.58659697,122.08,-6.86,20.02,12,72.0,1.6371257
1784070997688,-0.6353987,1.6451067,0.95627016,108.57,-42.77,36.05,12,72.0,2.0061307
1784070997688,-0.6754161,1.9452375,0.7134815,73.22,-51.31,68.25,12,72.0,2.1792638
1784070997688,-0.7027451,1.5538476,0.85061437,72.03,-42.91,88.76,12,72.0,2.1792638
1784070997688,-0.5546318,1.6743878,1.5179782,90.090004,-64.89,104.65,12,72.0,2.3271117
1784070997688,-0.6773682,2.265621,0.95236605,109.62,-53.9,130.34,12,72.0,2.5492876
1784070997688,-0.98457515,2.1165316,0.32355556,39.97,-44.38,147.0,12,72.0,2.5492876
1784070997780,-0.9362614,1.5284706,0.45190415,-28.14,-41.02,135.03,12,72.0,2.5492876
1784070997780,-0.32087147,1.3788933,0.5551198,-31.43,-31.22,98.0,12,72.0,2.5492876
1784070997780,0.2659695,1.6065533,0.34258825,23.73,-8.12,52.99,12,72.0,2.5492876
1784070997780,0.5582919,1.8244531,0.336,-54.95,1.26,15.54,12,72.0,2.5492876
1784070997780,0.5170545,1.3859695,0.86354685,-67.62,1.61,-16.38,12,72.0,2.5492876
1784070997780,0.24449673,1.3144749,0.56951636,-29.4,4.83,-39.27,12,72.0,2.5492876
1784070997780,-0.014396514,1.2276078,0.2828061,-28.28,-0.98,-54.74,12,72.0,2.5492876
1784070997780,-0.22033986,1.2241917,0.29817864,-31.15,-6.37,-64.05,12,72.0,2.5492876
1784070997823,-0.3584488,1.207355,0.36601308,-31.5,-10.15,-64.75,12,72.0,2.5492876
1784070997823,-0.44141176,1.2178475,0.30623093,-22.47,-12.39,-58.31,12,72.0,2.5492876
1784070997823,-0.4348235,1.0960872,0.23473638,-26.460001,-18.69,-46.06,12,72.0,2.5492876
1784070997823,-0.36186492,1.0504576,0.22839217,-34.58,-26.32,-31.08,13,78.0,2.5492876
1784070997823,-0.27231374,1.0538737,0.21521568,-40.95,-31.710001,-17.85,13,78.0,2.5492876
1784070997823,-0.21960786,0.9848192,0.20325926,-46.55,-34.72,-7.98,13,78.0,2.5492876
1784070997823,-0.16836601,0.8842876,0.19130284,-47.11,-34.37,-2.52,13,78.0,2.5492876
1784070997823,-0.13810892,0.80327666,0.1542135,-43.75,-34.65,-1.61,13,78.0,2.5492876
1784070997914,-0.110779956,0.7173856,0.17031808,-39.97,-34.37,-3.57,13,78.0,2.5492876
1784070997914,-0.1007756,0.6778562,0.17666231,-36.4,-32.34,-7.77,13,78.0,2.5492876
1784070997914,-0.102727674,0.642231,0.14957735,-31.92,-29.26,-13.16,13,78.0,2.5492876
1784070997914,-0.09613943,0.60831374,0.13664488,-31.01,-25.97,-18.48,13,78.0,2.5492876
1784070997914,-0.08076689,0.6046536,0.14469717,-31.15,-22.4,-23.45,13,78.0,2.5492876
1784070997914,-0.057586055,0.61246186,0.124200426,-28.7,-18.97,-27.65,13,78.0,2.5492876
1784070997914,-0.024888888,0.61172986,0.13347277,-29.47,-16.03,-30.03,13,78.0,2.5492876
1784070997914,-9.7603485E-4,0.6210022,0.0951634,-28.84,-13.51,-30.03,13,78.0,2.5492876
1784070998004,0.018788671,0.6073377,0.107363835,-31.01,-11.06,-26.95,13,78.0,2.5492876
1784070998004,0.042701527,0.6078257,0.07661873,-32.13,-10.01,-22.47,13,78.0,2.5492876
1784070998004,0.043677557,0.60026145,0.043921567,-35.49,-10.15,-15.61,13,78.0,2.5492876
1784070998004,0.057098042,0.5656122,-0.032453157,-37.03,-10.57,-9.17,13,78.0,2.5492876
1784070998004,0.04538562,0.51315033,-0.060270153,-33.74,-11.2,-3.22,13,78.0,2.5492876
1784070998004,0.011712418,0.48435733,-0.05294989,-27.44,-11.55,2.1,13,78.0,2.5492876
1784070998004,-0.02098475,0.46678868,-0.052705884,-16.66,-12.32,6.3,13,78.0,2.5492876
1784070998004,-0.057098042,0.47532898,-0.051973857,-7.77,-13.16,9.52,13,78.0,2.5492876
1784070998049,-0.08467103,0.4897255,-0.029037038,0.35,-13.51,11.62,13,78.0,2.5492876
1784070998049,-0.107363835,0.5575599,-0.0014640522,6.79,-12.81,12.88,13,78.0,2.5492876
1784070998049,-0.16690196,0.642719,0.07735076,14.42,-10.57,13.02,13,78.0,2.5492876
1784070998049,-0.2293682,0.7300741,0.15982571,20.51,-4.69,13.58,13,78.0,2.5492876
1784070998049,-0.20789543,0.8367059,0.20203921,26.25,-1.33,14.91,13,78.0,2.5492876
1784070998049,-0.21521568,0.93528545,0.15323746,31.5,-0.91,18.13,13,78.0,2.5492876
1784070998049,-0.18959478,1.0812026,0.049777776,36.47,-1.19,21.7,13,78.0,2.5492876
1784070998049,-0.12102832,1.3161831,-0.0024400873,42.21,-0.63,20.3,13,78.0,2.5492876
1784070998145,-0.13566884,1.4960175,-0.040993463,45.57,0.7,13.51,13,78.0,2.5492876
1784070998145,-0.2210719,1.4747887,-0.111999996,31.29,0.91,7.42,13,78.0,2.5492876
1784070998145,-0.2832941,1.3483921,-0.14420915,6.86,-1.6800001,2.59,13,78.0,2.5492876
1784070998145,-0.33258387,1.3110588,-0.17885838,-9.52,-7.7,-4.62,13,78.0,2.5492876
1784070998145,-0.33429193,1.2627451,-0.22473203,-12.74,-17.57,-13.58,13,78.0,2.5492876
1784070998145,-0.2627974,1.1570892,0.015616558,-4.34,-27.09,-21.91,14,84.0,2.5492876
1784070998145,-0.1566536,1.0829107,0.27304575,15.89,-29.33,-27.51,14,84.0,2.5492876
1784070998145,-0.1459172,1.0699782,0.37626144,24.78,-22.19,-28.49,14,84.0,2.5492876
1784070998230,-0.21423966,1.0675381,0.4250632,24.85,-8.54,-26.6,14,84.0,2.5492876
1784070998230,-0.195939,1.1600174,0.40529847,36.47,3.43,-26.6,14,84.0,2.5492876
1784070998230,-0.050509803,1.2556688,0.48899347,59.78,10.85,-32.27,14,84.0,2.5492876
1784070998230,0.26108932,1.317159,0.5719564,77.77,18.06,-44.45,14,84.0,2.5492876
1784070998230,0.38626578,1.286414,0.6976209,75.46,25.13,-57.61,14,84.0,2.5492876
1784070998230,0.09979956,1.28861,0.80083656,78.54,34.23,-70.56,14,84.0,2.5492876
1784070998230,0.39627016,1.2061352,0.33233985,71.54,20.09,-82.53,14,84.0,2.5492876
1784070998230,0.29793465,1.202963,0.43677562,30.380001,-0.28,-89.32,14,84.0,2.5492876
1784070998274,-0.11932026,1.2934902,0.49436167,21.0,-13.93,-92.68,14,84.0,2.5492876
1784070998274,-0.50094986,1.3388758,0.5273028,35.98,-22.89,-91.0,14,84.0,2.5492876
1784070998274,-0.6524793,1.3139869,0.42774728,38.36,-28.7,-81.97,14,84.0,2.5492876
1784070998274,-0.66199565,1.2991023,0.3982222,24.78,-31.08,-62.72,14,84.0,2.5492876
1784070998274,-0.5177865,1.2637211,0.3306318,6.79,-32.41,-39.76,14,84.0,2.5492876
1784070998274,-0.26426142,1.2197995,0.2967146,-3.01,-30.87,-16.38,14,84.0,2.5492876
1784070998274,0.04514161,1.4152505,0.31672332,-22.4,-24.36,5.67,14,84.0,2.5492876
1784070998274,0.24205664,1.4137865,0.2269281,-27.37,-9.66,21.63,14,84.0,2.5492876
1784070998409,0.35966885,1.3449761,0.26743355,-23.38,6.02,28.0,14,84.0,2.5492876
1784070998409,0.4170109,1.3327756,0.30452287,-20.16,18.34,27.58,14,84.0,2.5492876
1784070998409,0.41945097,1.2180915,0.27938998,-27.44,24.01,24.43,14,84.0,2.5492876
1784070998409,0.3503965,1.1685578,0.25084096,-35.0,26.18,23.1,14,84.0,2.5492876
1784070998409,0.2993987,1.0904748,0.25572112,-37.52,29.82,23.38,15,90.0,2.5492876
1784070998409,0.24742483,0.97969496,0.26792157,-25.62,36.61,24.36,15,90.0,2.5492876
1784070998409,0.2074074,0.98506314,0.22619607,-17.85,43.96,26.74,15,90.0,2.5492876
1784070998409,0.16372985,0.89209586,0.23083223,-13.79,50.68,29.54,15,90.0,2.5492876
1784070998427,0.10541177,0.83499783,0.22302397,-11.34,56.0,33.18,15,90.0,2.5492876
1784070998427,0.053681917,0.7915643,0.21155554,-9.03,59.64,37.87,15,90.0,2.5492876
1784070998427,7.320261E-4,0.7705795,0.20374727,-4.41,62.37,42.21,15,90.0,2.5492876
1784070998427,-0.021960784,0.7300741,0.195695,3.78,64.47,44.59,15,90.0,2.5492876
1784070998427,-0.070518516,0.699085,0.20472331,8.4,66.08,44.94,15,90.0,2.5492876
1784070998427,-0.08808714,0.6844444,0.20081916,12.95,65.87,43.82,15,90.0,2.5492876
1784070998427,-0.11395206,0.68200433,0.18959478,18.41,64.47,41.3,15,90.0,2.5492876
1784070998427,-0.12176035,0.7049412,0.16861002,18.9,61.04,39.13,15,90.0,2.5492876
1784070998543,-0.13396078,0.6964009,0.18056644,10.85,56.49,36.61,15,90.0,2.5492876
1784070998543,-0.22644009,0.86379087,0.10297168,10.43,57.89,32.9,15,90.0,2.5492876
1784070998543,-0.13835293,0.67248803,0.14616123,-2.94,49.21,30.31,15,90.0,2.5492876
1784070998543,-0.13030066,0.63173854,0.1259085,-1.96,43.68,26.67,15,90.0,2.5492876
1784070998543,-0.12444445,0.6683399,0.10760784,-0.14,40.46,22.61,15,90.0,2.5492876
1784070998543,-0.11566014,0.642719,0.09394335,-2.24,36.47,18.41,15,90.0,2.5492876
1784070998543,-0.14176907,0.6541874,0.061490197,-3.71,31.710001,14.07,15,90.0,2.5492876
1784070998543,-0.14664924,0.65394336,0.04001743,-2.8700001,26.95,9.59,15,90.0,2.5492876
1784070998633,-0.16104576,0.6641917,0.020496732,-8.12,22.82,4.41,15,90.0,2.5492876
1784070998633,-0.15738562,0.64564705,-0.044165578,-14.14,20.16,-0.7,15,90.0,2.5492876
1784070998633,-0.14006099,0.63759476,-0.08223093,-19.6,17.01,-4.62,15,90.0,2.5492876
1784070998633,-0.07198257,0.64881915,-0.04928976,-29.75,9.45,-8.05,15,90.0,2.5492876
1784070998633,-0.07759477,0.64003485,-0.07881482,-41.58,5.6,-9.7300005,15,90.0,2.5492876
1784070998633,-0.05148584,0.6649238,-0.039285403,-50.54,4.9,-10.85,15,90.0,2.5492876
1784070998633,-0.020252723,0.6671198,0.040749453,-55.3,7.7,-10.92,15,90.0,2.5492876
1784070998633,-0.01146841,0.6634597,0.07442266,-52.85,14.35,-9.38,15,90.0,2.5492876
1784070998642,0.0046361657,0.6637037,0.14201307,-42.420002,21.49,-6.44,15,90.0,2.5492876
1784070998642,0.068810456,0.70420915,0.17275818,-29.26,25.34,-2.24,15,90.0,2.5492876
1784070998642,0.23083223,0.757403,0.33697602,-14.35,26.460001,1.19,15,90.0,2.5492876
1784070998642,0.3333159,0.8159651,0.43213943,10.43,22.960001,3.43,15,90.0,2.5492876
1784070998642,0.25962526,0.96481043,0.47801307,19.74,13.09,5.46,15,90.0,2.5492876
1784070998642,0.08857516,1.1685578,0.26230937,46.2,9.94,5.11,15,90.0,2.5492876
1784070998642,-0.19715904,1.2646972,-0.0063442267,56.420002,11.34,2.45,15,90.0,2.5492876
1784070998642,-0.533159,1.3576645,-0.14201307,42.14,16.73,1.82,15,90.0,2.5492876
1784070998762,-0.46898472,1.2539607,-0.015860565,-9.38,9.94,1.33,15,90.0,2.5492876
1784070998762,-0.16861002,1.1953987,-0.015616558,-39.69,15.54,4.06,15,90.0,2.5492876
1784070998762,0.12834857,1.204183,0.18642265,10.43,35.21,6.65,15,90.0,2.5492876
1784070998762,0.16421786,1.3684009,0.33624402,49.98,44.170002,10.36,15,90.0,2.5492876
1784070998762,0.0053681917,1.5252985,0.2996427,47.74,42.91,20.09,15,90.0,2.5492876
1784070998762,-0.020008715,1.5326188,0.5370632,40.39,31.78,29.26,15,90.0,2.5492876
1784070998762,-0.08076689,1.5467712,0.70176905,59.22,15.61,35.98,15,90.0,2.5492876
1784070998762,-0.24742483,1.8688629,0.5275468,91.98,-0.28,47.04,15,90.0,2.5492876
1784070998814,-0.5194946,1.7729672,0.070518516,65.590004,-8.96,58.31,15,90.0,2.5492876
1784070998814,-0.3279477,1.3705969,0.15006536,-8.75,-18.2,58.8,15,90.0,2.5492876
1784070998814,-0.13957298,1.1958867,0.2430327,-27.86,-10.71,54.6,15,90.0,2.5492876
1784070998814,0.043921567,1.1695337,0.46337253,-6.86,9.94,49.28,15,90.0,2.5492876
1784070998814,0.18813072,1.175878,0.48240522,8.89,29.68,42.28,15,90.0,2.5492876
1784070998814,0.20691939,1.1156077,0.5180305,4.55,44.66,34.65,15,90.0,2.5492876
1784070998814,0.13957298,0.9696906,0.5072941,-8.47,53.9,28.98,16,96.0,2.5492876
1784070998814,0.06832244,0.77253157,0.4899695,-19.32,57.4,24.15,16,96.0,2.5492876
1784070998858,-0.022204792,0.6324706,0.43067536,-26.6,55.86,20.3,16,96.0,2.5492876
1784070998858,-0.050265793,0.58635294,0.37186927,-32.62,51.1,18.27,16,96.0,2.5492876
1784070998858,-0.11517211,0.6288104,0.36820915,-32.83,43.96,17.36,16,96.0,2.5492876
1784070998858,-0.16763398,0.82206535,0.35430065,-24.29,34.37,17.710001,16,96.0,2.5492876
1784070998858,-0.23424837,0.9784749,0.39016995,-7.7,22.75,18.34,16,96.0,2.5492876
1784070998858,-0.24815686,1.1509892,0.37992156,13.09,11.2,17.78,16,96.0,2.5492876
1784070998858,-0.26889762,1.2859259,0.32599562,33.18,2.17,15.26,16,96.0,2.5492876
1784070998858,-0.3413682,1.3205751,0.23254031,40.95,-4.06,8.75,16,96.0,2.5492876
1784070998988,-0.35381263,1.3069106,0.23620042,8.82,-9.03,0.28,16,96.0,2.5492876
1784070998988,-0.32672766,1.1138997,0.30110675,-16.03,-8.54,-8.47,17,102.0,2.5492876
1784070998988,-0.32379955,0.9696906,0.27084967,-18.34,-8.47,-15.89,17,102.0,2.5492876
1784070998988,-0.3274597,0.9360174,0.2713377,-9.59,-11.27,-20.02,17,102.0,2.5492876
1784070998988,-0.26401743,0.89697605,0.26645753,-8.05,-11.62,-21.7,17,102.0,2.5492876
1784070998988,-0.25938126,0.8747712,0.23912853,-5.88,-12.39,-20.72,17,102.0,2.5492876
1784070998988,-0.251573,0.8518345,0.2186318,-3.01,-13.37,-17.85,17,102.0,2.5492876
1784070998988,-0.20545535,0.84622216,0.21960786,-5.25,-15.26,-14.7,17,102.0,2.5492876
1784070999039,-0.16128977,0.838658,0.20399128,-6.09,-17.22,-11.55,17,102.0,2.5492876
1784070999039,-0.115904145,0.8486623,0.18373856,-4.55,-18.83,-8.82,17,102.0,2.5492876
1784070999039,-0.08369499,0.82816565,0.18617864,-2.1,-19.39,-8.33,17,102.0,2.5492876
1784070999039,-0.065882355,0.8201133,0.17885838,1.05,-18.76,-8.82,17,102.0,2.5492876
1784070999039,-0.03806536,0.81962526,0.16226579,5.32,-17.99,-9.87,17,102.0,2.5492876
1784070999039,-0.006832244,0.81230503,0.17105012,2.8700001,-16.87,-10.5,17,102.0,2.5492876
1784070999039,0.005124183,0.7908322,0.15201743,2.1,-15.26,-11.41,17,102.0,2.5492876
1784070999039,-0.029525053,0.8013246,0.14128104,1.82,-14.07,-10.5,17,102.0,2.5492876
1784070999079,-0.03538126,0.77179956,0.11346405,-1.19,-12.32,-8.96,17,102.0,2.5492876
1784070999079,-0.038797386,0.74154246,0.09491939,-4.76,-10.29,-7.07,17,102.0,2.5492876
1784070999079,-0.052705884,0.73519826,0.078570805,-7.7,-7.98,-4.41,17,102.0,2.5492876
1784070999079,-0.060026146,0.7171416,0.05294989,-8.75,-5.11,-1.4,17,102.0,2.5492876
1784070999079,-0.053193897,0.69615686,0.03782135,-7.21,-1.75,1.82,17,102.0,2.5492876
1784070999079,-0.049045753,0.7264139,0.026352942,-10.29,1.75,5.11,17,102.0,2.5492876
1784070999079,-0.03391721,0.7615512,-0.05563399,-11.62,4.27,8.33,17,102.0,2.5492876
1784070999079,-0.053925924,0.73568624,-0.06051416,-27.3,4.48,11.13,17,102.0,2.5492876
1784070999174,-0.062222224,0.6649238,-0.042213507,-40.81,2.38,12.25,17,102.0,2.5492876
1784070999174,-0.09077124,0.60904574,-0.027816994,-41.65,-1.05,11.62,17,102.0,2.5492876
1784070999174,-0.101019606,0.57098037,0.015860565,-33.25,-5.39,9.52,17,102.0,2.5492876
1784070999174,-0.19764706,0.46166447,0.1625098,-17.15,-15.26,6.23,17,102.0,2.5492876
1784070999174,-0.13274074,0.6551634,0.08271895,-5.04,-22.12,3.64,17,102.0,2.5492876
1784070999174,-0.2740218,0.62954247,0.14518519,-2.45,-21.56,0.14,17,102.0,2.5492876
1784070999174,-0.29793465,0.73202616,0.1849586,4.76,-21.77,-3.64,17,102.0,2.5492876
1784070999174,-0.3840697,0.81547713,0.28085402,7.91,-19.04,-7.0,17,102.0,2.5492876
1784070999259,-0.3752854,0.9206449,0.27036166,11.41,-14.77,-8.33,17,102.0,2.5492876
1784070999259,-0.39114597,1.0428933,0.19837908,17.43,-9.31,-7.84,17,102.0,2.5492876
1784070999259,-0.28671023,1.1370806,0.052705884,27.51,-5.32,-7.21,17,102.0,2.5492876
1784070999259,-0.0729586,1.2119913,-0.026352942,38.08,-6.02,-9.52,17,102.0,2.5492876
1784070999259,0.14469717,1.1917386,-0.0868671,42.35,-13.79,-13.93,17,102.0,2.5492876
1784070999259,0.22473203,1.0624139,0.006832244,34.02,-23.94,-17.99,18,108.0,2.5492876
1784070999259,0.038797386,1.0280087,0.35747278,37.87,-28.630001,-23.66,18,108.0,2.5492876
1784070999259,-0.17495424,1.2083311,0.31477123,53.48,-24.08,-32.69,18,108.0,2.5492876
1784070999309,-0.17251417,1.2178475,0.20838344,53.48,-16.52,-40.32,18,108.0,2.5492876
1784070999309,-0.07076252,1.1507452,0.09077124,55.79,-13.93,-42.91,19,114.0,2.5492876
1784070999309,0.018544663,1.2764096,0.43897167,54.74,-5.81,-45.920002,19,114.0,2.5492876
1784070999309,-0.014640523,1.3776731,0.6207582,56.91,12.46,-49.84,19,114.0,2.5492876
1784070999309,-0.048069715,1.512366,0.40212634,64.12,21.14,-55.86,19,114.0,2.5492876
1784070999309,-0.017568627,1.4906492,0.37089324,47.53,22.82,-64.54,19,114.0,2.5492876
1784070999309,-0.100531586,1.2912941,0.5502396,12.81,16.52,-70.07,19,114.0,2.5492876
1784070999309,-0.23620042,1.2554249,0.5824488,8.47,6.37,-75.39,19,114.0,2.5492876
1784070999399,-0.3186754,1.2258997,0.5824488,23.73,-7.42,-79.03,19,114.0,2.5492876
1784070999399,-0.30013072,1.2381003,0.5487756,31.710001,-22.960001,-77.7,19,114.0,2.5492876
1784070999399,-0.30940303,1.1780741,0.5292549,23.66,-37.59,-71.68,19,114.0,2.5492876
1784070999399,-0.34405228,1.1409848,0.4336035,12.46,-51.31,-61.32,19,114.0,2.5492876
1784070999399,-0.27865794,1.1624576,0.3945621,4.69,-58.38,-46.83,19,114.0,2.5492876
1784070999399,-0.23278432,1.1800262,0.35722876,-5.6,-54.53,-30.380001,19,114.0,2.5492876
1784070999399,-0.09296732,1.2117473,0.21936384,-2.31,-45.5,-14.07,19,114.0,2.5492876
1784070999399,0.039529413,1.2239476,0.16763398,-4.27,-35.14,0.0,19,114.0,2.5492876
1784070999444,0.11395206,1.2959303,0.14762528,3.3600001,-22.19,9.8,19,114.0,2.5492876
1784070999444,0.19715904,1.288854,0.16177778,4.06,-9.52,14.84,19,114.0,2.5492876
1784070999444,0.25864923,1.2349281,0.21814379,-2.66,0.98,16.17,19,114.0,2.5492876
1784070999444,0.32306755,1.1875905,0.23156427,0.91,8.47,15.75,19,114.0,2.5492876
1784070999444,0.33258387,1.090231,0.2405926,-3.08,12.46,14.77,20,120.0,2.5492876
1784070999444,0.28353813,1.038501,0.22473203,-6.86,14.63,13.440001,20,120.0,2.5492876
1784070999444,0.23864052,0.97310674,0.22668411,-5.32,16.8,12.18,20,120.0,2.5492876
1784070999444,0.19764706,0.91893685,0.2098475,-0.56,20.02,11.69,20,120.0,2.5492876
1784070999534,0.1146841,0.9116165,0.18349455,1.61,23.1,12.46,20,120.0,2.5492876
1784070999534,0.049777776,0.8752593,0.18910675,2.38,24.08,15.33,20,120.0,2.5492876
1784070999534,0.013664488,0.8252375,0.18081045,2.66,24.710001,18.9,20,120.0,2.5492876
1784070999534,-0.026108934,0.80571675,0.16104576,3.85,25.62,21.77,20,120.0,2.5492876
1784070999534,-0.073446624,0.811329,0.1481133,9.17,26.53,24.36,20,120.0,2.5492876
1784070999534,-0.10297168,0.85207844,0.14786929,10.92,26.81,26.880001,20,120.0,2.5492876
1784070999534,-0.11517211,0.8323137,0.16324182,8.68,26.460001,27.93,20,120.0,2.5492876
1784070999534,-0.12371241,0.812061,0.1454292,11.83,26.25,27.23,20,120.0,2.5492876
1784070999624,-0.1232244,0.77399564,0.14152505,11.41,25.62,25.62,20,120.0,2.5492876
1784070999624,-0.1261525,0.7637473,0.1176122,10.22,24.15,23.31,20,120.0,2.5492876
1784070999624,-0.103947714,0.7444706,0.10785185,7.84,21.42,21.35,20,120.0,2.5492876
1784070999624,-0.0868671,0.70762527,0.097603485,1.47,17.29,19.32,20,120.0,2.5492876
1784070999624,-0.074666664,0.69688886,0.084427014,-5.67,13.37,16.66,20,120.0,2.5492876
1784070999624,-0.059782133,0.67004794,0.06978649,-11.06,10.29,13.65,20,120.0,2.5492876
1784070999624,-0.06661438,0.63173854,0.057586055,-14.07,8.05,10.08,20,120.0,2.5492876
1784070999624,-0.06515033,0.63442266,0.035137255,-15.54,5.53,6.3,20,120.0,2.5492876
1784070999758,-0.03416122,0.62807846,0.0056122006,-20.79,3.99,3.15,20,120.0,2.5492876
1784070999758,-0.01146841,0.63442266,-0.026352942,-29.05,1.82,-0.07,20,120.0,2.5492876
1784070999758,0.100531586,0.587329,-0.049777776,-37.87,2.94,-2.45,20,120.0,2.5492876
1784070999758,0.06319825,0.62222224,0.021472767,-44.8,2.52,-4.69,20,120.0,2.5492876
1784070999758,0.06295425,0.63930285,0.054901965,-48.16,5.04,-5.7400002,20,120.0,2.5492876
1784070999758,0.06417429,0.6590676,0.08369499,-48.65,13.51,-5.39,20,120.0,2.5492876
1784070999758,0.09491939,0.7361743,0.13908496,-39.97,17.5,-3.22,20,120.0,2.5492876
1784070999758,0.06197821,0.7681394,0.07198257,-16.24,24.92,0.35,20,120.0,2.5492876
1784070999770,0.083939,0.7600872,0.14372113,-21.0,31.710001,5.46,20,120.0,2.5492876
1784070999770,0.27548584,0.7800958,0.3811416,-21.07,29.19,8.54,20,120.0,2.5492876
1784070999770,0.37479737,0.91234857,0.47996512,-2.24,19.39,8.12,20,120.0,2.5492876
1784070999770,0.2823181,1.0851067,0.4226231,22.960001,7.35,7.28,20,120.0,2.5492876
1784070999770,0.08589107,1.1656296,0.23693246,44.24,1.33,7.35,20,120.0,2.5492876
1784070999770,-0.17446622,1.1939346,0.021228759,57.61,1.96,7.07,20,120.0,2.5492876
1784070999770,-0.50851417,1.1605054,-0.079058826,50.47,5.67,7.35,20,120.0,2.5492876
1784070999770,-0.60660565,1.0831547,-0.024400871,18.41,4.62,6.65,20,120.0,2.5492876
1784070999849,-0.39578214,1.0211765,0.048801742,-25.48,1.75,6.79,21,125.99999,2.5492876
1784070999849,-0.12078431,1.038501,0.024400871,-31.43,12.88,11.55,21,125.99999,2.5492876
1784070999849,0.10248367,1.0785185,0.16446187,11.97,30.73,15.96,21,125.99999,2.5492876
1784070999849,0.17715032,1.1702658,0.23473638,45.57,38.5,19.460001,21,125.99999,2.5492876
1784070999849,0.058074076,1.204671,0.19081481,50.82,36.26,23.66,21,125.99999,2.5492876
1784070999849,-0.0026840959,1.1956427,0.3194074,52.5,28.42,26.74,21,125.99999,2.5492876
1784070999849,-0.08247495,1.2998345,0.48264927,79.590004,15.89,31.710001,21,125.99999,2.5492876
1784070999849,-0.27036166,1.5640959,0.4989978,101.15,-6.79,41.93,21,125.99999,2.5492876
1784070999894,-0.48020917,1.6682876,0.075886704,91.77,-14.14,55.58,21,125.99999,2.5492876
1784070999894,-0.35771677,1.3852375,0.11126798,37.38,-21.28,64.12,21,125.99999,2.5492876
1784070999894,-0.11297604,1.2305359,0.4848453,7.35,-20.09,69.86,21,125.99999,2.5492876
1784070999894,0.051729847,1.2571329,0.5485316,9.24,-7.7,74.48,21,125.99999,2.5492876
1784070999894,0.121272326,1.2742134,0.67419606,13.93,4.76,77.28,21,125.99999,2.5492876
1784070999894,0.09101525,1.1907625,0.62685835,11.55,14.9800005,76.51,21,125.99999,2.5492876
1784070999894,0.054413944,1.1038954,0.5656122,4.62,20.58,71.19,21,125.99999,2.5492876
1784070999894,-0.012688453,0.9955556,0.52217865,-8.33,21.28,63.07,22,132.0,2.5492876
1784070999984,-0.0475817,0.9369935,0.46898472,-17.08,18.69,52.85,22,132.0,2.5492876
1784070999984,-0.055389978,0.95017,0.46264055,-18.27,13.86,40.39,22,132.0,2.5492876
1784070999984,-0.08052288,0.9284532,0.44482788,-6.7200003,9.31,27.16,22,132.0,2.5492876
1784070999984,-0.08223093,1.2561569,0.41749892,3.64,5.67,14.91,22,132.0,2.5492876
1784070999984,-0.16006972,1.2768975,0.3557647,23.45,5.6,-1.19,22,132.0,2.5492876
1784070999984,-0.2774379,1.4865011,0.21741176,6.09,0.7,-13.3,22,132.0,2.5492876
1784070999984,-0.3530806,1.3583965,0.22717212,-21.77,-8.75,-21.07,22,132.0,2.5492876
1784070999984,-0.42164707,1.17539,0.20228322,-38.43,-17.78,-26.18,22,132.0,2.5492876
1784071000074,-0.46361658,1.0155643,0.21887583,-43.26,-23.59,-28.77,23,138.0,2.5492876
1784071000074,-0.43750766,0.9613943,0.19179085,-42.77,-26.880001,-29.33,23,138.0,2.5492876
1784071000074,-0.3721133,0.8879477,0.19130284,-35.49,-29.33,-27.79,23,138.0,2.5492876
1784071000074,-0.3191634,0.87184316,0.17739433,-27.79,-31.78,-25.34,23,138.0,2.5492876
1784071000074,-0.26694554,0.8720872,0.19520697,-20.16,-33.670002,-22.54,23,138.0,2.5492876
1784071000074,-0.1654379,0.89746404,0.17763834,-17.08,-33.46,-18.2,23,138.0,2.5492876
1784071000074,-0.08906318,0.8994161,0.18056644,-16.8,-33.81,-14.14,23,138.0,2.5492876
1784071000074,-0.033429194,0.895024,0.1654379,-15.47,-34.37,-12.95,23,138.0,2.5492876
1784071000119,0.012688453,0.87745535,0.15201743,-10.99,-34.65,-13.65,23,138.0,2.5492876
1784071000119,0.04001743,0.8525664,0.15762964,-7.4900002,-33.670002,-15.190001,23,138.0,2.5492876
1784071000119,0.08101089,0.8742832,0.12102832,0.91,-32.76,-16.66,23,138.0,2.5492876
1784071000119,0.083206974,0.83499783,0.14786929,3.92,-32.06,-17.36,23,138.0,2.5492876
1784071000119,0.07661873,0.8513464,0.10785185,5.6,-31.08,-17.710001,23,138.0,2.5492876
1784071000119,0.070030496,0.80108064,0.13322876,3.85,-29.75,-17.92,23,138.0,2.5492876
1784071000119,0.051729847,0.7971765,0.11151198,4.83,-28.84,-17.57,23,138.0,2.5492876
1784071000119,0.048801742,0.784488,0.09882353,1.4,-27.58,-15.96,23,138.0,2.5492876
1784071000209,0.04684967,0.7996166,0.07613072,-5.88,-25.27,-13.09,23,138.0,2.5492876
1784071000209,0.03782135,0.78888017,0.07954685,-18.9,-22.54,-9.24,23,138.0,2.5492876
1784071000209,0.02269281,0.7517909,0.063686274,-23.8,-20.09,-4.48,23,138.0,2.5492876
1784071000209,0.018544663,0.7491067,0.033673204,-23.66,-17.22,1.19,23,138.0,2.5492876
1784071000209,0.025132896,0.7610632,0.052217867,-25.69,-13.37,7.21,23,138.0,2.5492876
1784071000209,0.03562527,0.7898562,0.005856209,-30.24,-8.75,12.88,23,138.0,2.5492876
1784071000209,0.04514161,0.7893682,-0.0475817,-34.37,-5.11,17.43,23,138.0,2.5492876
1784071000209,0.03806536,0.7744837,-0.13688889,-37.170002,-2.45,20.37,23,138.0,2.5492876
1784071000254,-0.004148148,0.7434946,-0.14128104,-37.38,-1.96,23.45,23,138.0,2.5492876
1784071000254,-0.04148148,0.70664924,-0.1649499,-37.03,-1.47,25.13,23,138.0,2.5492876
1784071000254,-0.0644183,0.65955555,-0.12786056,-35.91,-2.45,24.92,23,138.0,2.5492876
1784071000254,-0.08515904,0.64003485,-0.09467538,-29.82,-3.15,23.66,23,138.0,2.5492876
1784071000254,-0.16470587,0.7088453,0.01903268,-8.54,-0.7,18.48,23,138.0,2.5492876
1784071000254,-0.22644009,0.6893246,-4.8801742E-4,15.47,10.99,15.54,23,138.0,2.5492876
1784071000254,-0.25596514,0.6749281,0.06929847,8.54,16.31,15.12,23,138.0,2.5492876
1784071000254,-0.10297168,0.76667535,0.18349455,9.94,20.3,12.81,23,138.0,2.5492876
1784071000343,-0.006100218,0.88013947,0.3028148,17.78,23.73,10.5,23,138.0,2.5492876
1784071000343,0.0107363835,0.9282091,0.2935425,23.17,30.73,11.06,23,138.0,2.5492876
1784071000343,-0.008540305,0.9997037,0.14372113,23.31,35.63,12.39,23,138.0,2.5492876
1784071000343,0.023424836,1.0524096,0.05343791,23.17,35.28,9.59,23,138.0,2.5492876
1784071000343,0.07735076,1.0511895,0.1037037,20.37,33.32,3.5,23,138.0,2.5492876
1784071000343,0.07491068,0.98872334,0.15006536,13.16,26.11,-2.52,23,138.0,2.5492876
1784071000343,-0.08052288,0.9369935,0.23912853,23.45,14.07,-10.15,23,138.0,2.5492876
1784071000343,-0.23302832,0.9835992,0.30989107,39.76,5.18,-19.95,23,138.0,2.5492876
1784071000698,-0.27182573,1.0228845,0.19959912,41.3,2.17,-29.54,23,138.0,2.5492876
1784071000698,-0.31159914,0.9848192,0.15884967,37.24,1.61,-35.77,23,138.0,2.5492876
1784071000698,-0.3340479,1.0804706,0.1878867,36.75,4.83,-41.23,23,138.0,2.5492876
1784071000698,-0.32892373,1.1888105,0.34942046,30.52,10.57,-46.69,23,138.0,2.5492876
1784071000698,-0.29232246,1.3252113,0.41017866,38.57,20.65,-51.52,23,138.0,2.5492876
1784071000698,-0.065882355,1.541403,0.30110675,52.08,31.99,-56.91,23,138.0,2.5492876
1784071000698,0.050265793,1.6687757,0.18007843,60.83,36.68,-64.12,23,138.0,2.5492876
1784071000698,-0.060758173,1.6409585,0.23449236,50.4,32.2,-67.9,23,138.0,2.5492876
1784071000927,-0.18813072,1.4769847,0.41432682,34.93,23.87,-67.27,23,138.0,2.5492876
1784071000927,-0.23839653,1.3542483,0.48045316,22.54,13.09,-65.1,23,138.0,2.5492876
1784071000927,-0.24181265,1.231512,0.6022135,15.82,0.49,-63.77,23,138.0,2.5492876
1784071000927,-0.19349891,1.1246362,0.5787887,12.95,-11.4800005,-62.37,23,138.0,2.5492876
1784071000927,-0.15738562,1.0463094,0.51388234,12.74,-21.42,-59.57,24,144.0,2.5492876
1784071000927,-0.15884967,1.0116601,0.4621525,9.38,-29.12,-55.09,24,144.0,2.5492876
1784071000927,-0.13054466,1.0467974,0.38992593,3.64,-32.9,-49.07,24,144.0,2.5492876
1784071000927,-0.11566014,1.0955992,0.3557647,-8.96,-32.27,-41.72,24,144.0,2.5492876
1784071000950,-0.1202963,1.1426928,0.29817864,-10.36,-27.16,-32.9,24,144.0,2.5492876
1784071000950,-0.07076252,1.2002789,0.20447929,-10.29,-19.25,-23.8,24,144.0,2.5492876
1784071000950,0.019764706,1.2066231,0.15226144,-8.19,-9.17,-14.77,24,144.0,2.5492876
1784071000950,0.10711983,1.259329,0.10150763,0.35,2.31,-4.27,24,144.0,2.5492876
1784071000950,0.16372985,1.1941787,0.1371329,-3.85,13.51,5.25,24,144.0,2.5492876
1784071000950,0.24693681,1.0690023,0.22888018,-3.85,23.31,11.41,25,150.0,2.5492876
1784071000950,0.28744227,1.0406972,0.2601133,-7.42,31.08,15.4,25,150.0,2.5492876
1784071000950,0.2889063,0.9940915,0.2774379,-12.81,34.44,18.69,25,150.0,2.5492876
1784071000956,0.23888454,0.95236605,0.24498475,-17.78,36.82,21.07,25,150.0,2.5492876
1784071000956,0.24278867,0.8776993,0.21814379,-19.32,35.35,22.82,25,150.0,2.5492876
1784071000956,0.2100915,0.8486623,0.20887147,-18.69,35.49,24.36,25,150.0,2.5492876
1784071000956,0.15860566,0.78790414,0.1903268,-13.37,36.68,25.41,25,150.0,2.5492876
1784071000956,0.098091505,0.7361743,0.17324619,-7.91,37.52,25.83,25,150.0,2.5492876
1784071000956,0.0419695,0.7354423,0.16202179,-3.29,37.87,25.62,25,150.0,2.5492876
1784071000956,-0.024888888,0.74007845,0.15494554,0.98,37.66,25.69,25,150.0,2.5492876
1784071000956,-0.070518516,0.7815599,0.1454292,5.81,36.54,25.9,25,150.0,2.5492876
1784071001146,-0.09125926,0.7820479,0.14176907,8.33,34.51,25.27,25,150.0,2.5492876
1784071001146,-0.12908061,0.79620045,0.12956862,9.45,32.69,22.75,25,150.0,2.5492876
1784071001146,-0.15543355,0.7932723,0.14030501,11.76,30.8,20.3,25,150.0,2.5492876
1784071001146,-0.17397821,0.8157211,0.118832245,16.8,28.91,18.41,25,150.0,2.5492876
1784071001146,-0.17617428,0.81864923,0.121272326,10.92,26.25,16.17,25,150.0,2.5492876
1784071001146,-0.18569063,0.80571675,0.10492375,6.09,23.87,13.65,25,150.0,2.5492876
1784071001146,-0.1876427,0.784,0.09857952,1.12,21.49,10.78,25,150.0,2.5492876
1784071001146,-0.18276253,0.7598431,0.08027887,-6.02,18.62,7.77,25,150.0,2.5492876
1784071001161,-0.1542135,0.74959475,0.07320262,-13.86,16.31,4.06,25,150.0,2.5492876
1784071001161,-0.11175599,0.729098,0.06246623,-16.24,12.95,-0.49,25,150.0,2.5492876
1784071001161,-0.08027887,0.7254379,0.04562963,-18.27,9.87,-4.76,25,150.0,2.5492876
1784071001161,-0.06637037,0.75227886,0.016836602,-24.01,8.19,-8.47,25,150.0,2.5492876
1784071001161,-0.024888888,0.7461786,0.018300654,-32.48,7.56,-11.27,25,150.0,2.5492876
1784071001161,0.03586928,0.74642265,2.4400871E-4,-43.05,7.56,-13.16,25,150.0,2.5492876
1784071001161,0.06417429,0.755207,0.042945534,-50.68,12.53,-13.37,25,150.0,2.5492876
1784071001161,0.12200436,0.7708235,0.042945534,-51.66,13.51,-11.41,25,150.0,2.5492876
1784071001191,0.17056209,0.8345098,0.19081481,-49.21,10.5,-7.35,25,150.0,2.5492876
1784071001191,0.114928104,0.8257255,0.057586055,-28.42,14.7,-2.1,25,150.0,2.5492876
1784071001191,0.09321132,0.79693246,0.041237473,-29.54,19.6,5.04,25,150.0,2.5492876
1784071001191,0.14713725,0.81059694,0.15567756,-26.81,20.79,10.64,25,150.0,2.5492876
1784071001191,0.27524182,0.86403483,0.2942745,-6.23,16.87,13.2300005,25,150.0,2.5492876
1784071001191,0.29573858,0.98140305,0.34990847,30.1,10.85,14.07,25,150.0,2.5492876
1784071001191,0.042213507,1.0853508,0.28939435,62.02,5.88,14.07,25,150.0,2.5492876
1784071001191,-0.16665795,1.0860828,0.19179085,66.78,0.98,12.32,25,150.0,2.5492876
1784071001210,-0.39016995,1.1307365,0.09321132,44.03,-5.95,10.36,25,150.0,2.5492876
1784071001210,-0.4672767,1.0719303,0.044653594,2.94,-11.4800005,7.0,25,150.0,2.5492876
1784071001210,-0.30647492,1.0411851,-0.043677557,-28.77,-5.7400002,4.97,25,150.0,2.5492876
1784071001210,-0.06905446,1.0177604,-0.097603485,-10.08,18.41,5.88,25,150.0,2.5492876
1784071001210,0.13444881,1.0155643,0.19959912,28.210001,38.920002,4.9,25,150.0,2.5492876
1784071001210,0.12932462,1.1141438,0.20301525,40.04,46.76,4.83,25,150.0,2.5492876
1784071001210,0.09906754,1.1290283,0.0978475,21.91,48.93,7.21,25,150.0,2.5492876
1784071001210,0.1651939,1.0958432,0.2154597,22.75,49.49,8.47,25,150.0,2.5492876
1784071001212,0.1820305,1.1500131,0.38309368,47.88,43.4,12.18,25,150.0,2.5492876
1784071001212,0.08223093,1.3008105,0.4001743,75.18,31.710001,22.26,25,150.0,2.5492876
1784071001212,-0.12249237,1.4440435,0.3054989,93.03,18.06,36.68,25,150.0,2.5492876
1784071001212,-0.2710937,1.5550675,0.18837473,88.06,4.9,52.85,25,150.0,2.5492876
1784071001212,-0.23790848,1.4342833,0.15982571,54.81,-3.99,66.36,25,150.0,2.5492876
1784071001212,-0.14250109,1.259817,0.3579608,26.32,0.42000002,76.3,25,150.0,2.5492876
1784071001212,-0.044409584,1.1236601,0.45971242,14.56,10.15,81.9,25,150.0,2.5492876
1784071001212,-0.019276688,1.0768105,0.55292374,11.2,23.38,84.0,25,150.0,2.5492876
1784071001227,-0.0107363835,1.0328889,0.56439215,6.65,35.14,82.53,26,156.0,2.5492876
1784071001227,-0.040749453,0.94236165,0.5524357,0.7,42.84,77.7,26,156.0,2.5492876
1784071001227,-0.0922353,0.85769063,0.4875294,-9.45,44.8,70.63,26,156.0,2.5492876
1784071001227,-0.11322004,0.7727756,0.42677125,-11.76,42.63,61.11,26,156.0,2.5492876
1784071001227,-0.13078867,0.6322266,0.41408283,13.3,38.71,48.02,26,156.0,2.5492876
1784071001227,-0.13078867,1.0526536,0.21375164,16.94,35.98,32.69,26,156.0,2.5492876
1784071001227,-0.10614379,1.0963311,0.38260567,-10.99,35.0,21.77,26,156.0,2.5492876
1784071001227,-0.14176907,1.1573333,0.31013507,-4.76,36.89,10.15,26,156.0,2.5492876
1784071001229,-0.20838344,1.1378126,0.20521133,-0.91,33.11,0.35,27,162.0,2.5492876
1784071001229,-0.25010893,1.1302483,0.2098475,8.26,25.27,-9.7300005,27,162.0,2.5492876
1784071001229,-0.23156427,1.2710414,0.18129848,18.62,9.38,-17.15,27,162.0,2.5492876
1784071001229,-0.447756,1.0233725,0.37674946,2.1,10.43,-19.81,28,168.0,2.5492876
1784071001229,-0.39724618,1.0682701,0.26352942,-5.39,12.18,-20.02,28,168.0,2.5492876
1784071001229,-0.4082266,0.9989717,0.23058824,-3.43,8.68,-18.62,28,168.0,2.5492876
1784071001229,-0.3669891,1.0021439,0.24742483,-3.29,6.79,-14.91,28,168.0,2.5492876
1784071001229,-0.28915033,1.009464,0.23254031,0.98,6.02,-9.94,28,168.0,2.5492876
1784071001243,-0.23034422,1.0489935,0.24010459,4.55,5.46,-4.48,28,168.0,2.5492876
1784071001243,-0.167878,1.0455774,0.2381525,6.44,4.55,0.56,28,168.0,2.5492876
1784071001243,-0.10614379,1.0711982,0.21277559,7.63,4.2,3.78,28,168.0,2.5492876
1784071001243,-0.057098042,1.0294727,0.2186318,6.37,4.27,4.48,28,168.0,2.5492876
1784071001243,-0.01903268,1.0641221,0.17739433,8.05,3.29,2.73,28,168.0,2.5492876
1784071001243,0.012200436,1.0319128,0.18154249,7.21,2.59,-0.42000002,28,168.0,2.5492876
1784071001243,0.03538126,1.0287408,0.17495424,0.56,2.52,-4.27,28,168.0,2.5492876
1784071001243,0.042701527,1.007756,0.16690196,-5.25,1.89,-7.0,28,168.0,2.5492876
1784071001285,0.021716775,0.9491939,0.18569063,-10.57,0.84000003,-8.19,28,168.0,2.5492876
1784071001285,2.4400871E-4,0.90917647,0.17763834,-8.89,0.0,-8.47,28,168.0,2.5492876
1784071001285,-0.023424836,0.90576035,0.17495424,-8.89,-0.7,-7.7,28,168.0,2.5492876
1784071001285,-0.056122,0.88501966,0.1590937,-13.86,-1.54,-5.95,28,168.0,2.5492876
1784071001285,-0.08564706,0.86696297,0.1456732,-19.88,-2.38,-3.57,28,168.0,2.5492876
1784071001285,-0.096383445,0.8420741,0.1568976,-26.18,-3.15,-0.84000003,28,168.0,2.5492876
1784071001285,-0.10028758,0.82767755,0.16446187,-33.18,-3.22,2.38,28,168.0,2.5492876
1784071001285,-0.09979956,0.8145011,0.13469282,-36.96,-3.71,5.18,28,168.0,2.5492876
1784071001422,-0.13054466,0.80205667,0.12517647,-35.7,-4.9,7.7,28,168.0,2.5492876
1784071001422,-0.12932462,0.81328106,0.05685403,-34.93,-4.62,10.22,28,168.0,2.5492876
1784071001422,-0.14274509,0.7766797,0.011712418,-35.98,-5.88,12.25,28,168.0,2.5492876
1784071001422,-0.18910675,0.73812634,-0.016592592,-32.13,-9.31,13.79,28,168.0,2.5492876
1784071001422,-0.21765578,0.7049412,-0.017812636,-25.9,-13.58,14.21,28,168.0,2.5492876
1784071001422,-0.35503268,0.53413504,0.097603485,-19.67,-18.76,11.97,28,168.0,2.5492876
1784071001422,-0.22473203,0.6761481,0.019764706,-12.88,-22.68,8.12,28,168.0,2.5492876
1784071001422,-0.23400435,0.65369934,-0.028549021,-9.45,-27.09,4.27,28,168.0,2.5492876
1784071001511,-0.26499346,0.66931593,-0.018300654,-9.24,-28.77,1.05,28,168.0,2.5492876
1784071001511,-0.34820044,0.700305,0.04928976,-3.85,-21.77,-1.54,28,168.0,2.5492876
1784071001511,-0.2488889,0.76277125,0.107363835,-0.28,-10.92,-3.57,28,168.0,2.5492876
1784071001511,-0.09321132,0.8557386,0.15543355,1.54,-1.47,-5.88,28,168.0,2.5492876
1784071001511,0.0031721133,0.95553815,0.13298476,0.7,6.65,-7.56,28,168.0,2.5492876
1784071001511,0.13884096,1.0345969,0.08223093,-0.14,14.42,-7.98,28,168.0,2.5492876
1784071001511,0.23376034,1.0797385,0.013176471,5.95,17.99,-8.54,28,168.0,2.5492876
1784071001511,0.2740218,1.0450892,-0.07954685,6.65,15.12,-8.26,28,168.0,2.5492876
1784071001524,0.25572112,0.99701965,-0.114928104,1.6800001,8.33,-7.21,28,168.0,2.5492876
1784071001524,0.11639216,0.93577343,0.06563834,4.41,4.55,-5.11,28,168.0,2.5492876
1784071001524,0.016592592,0.9491939,0.2430327,17.85,6.02,-3.92,28,168.0,2.5492876
1784071001524,-0.012688453,0.95675814,0.027084969,22.4,4.69,-4.48,28,168.0,2.5492876
1784071001524,-0.0107363835,1.0116601,0.057586055,12.88,1.33,-5.32,28,168.0,2.5492876
1784071001524,-0.119564265,1.040209,0.0868671,20.58,2.24,-6.37,28,168.0,2.5492876
1784071001524,-0.26987365,1.0770544,0.18983878,26.53,5.7400002,-6.65,28,168.0,2.5492876
1784071001524,-0.2918344,1.1104836,0.31721133,30.380001,12.18,-9.03,28,168.0,2.5492876
1784071001602,-0.24230066,1.1529412,0.35966885,32.2,21.0,-14.07,28,168.0,2.5492876
1784071001602,-0.14030501,1.231268,0.38309368,28.14,29.05,-21.28,28,168.0,2.5492876
1784071001602,-0.043677557,1.3496122,0.36015686,27.09,33.25,-31.29,28,168.0,2.5492876
1784071001602,0.020496732,1.4442875,0.32623965,25.69,31.15,-43.61,28,168.0,2.5492876
1784071001602,0.04172549,1.4130545,0.3865098,18.2,23.03,-54.74,28,168.0,2.5492876
1784071001602,0.005124183,1.3215512,0.43677562,12.39,11.69,-60.62,28,168.0,2.5492876
1784071001602,-0.061246186,1.2754335,0.46581262,12.95,-1.12,-62.93,28,168.0,2.5492876
1784071001602,-0.14689325,1.1995468,0.4992418,17.99,-13.72,-62.02,28,168.0,2.5492876
1784071001733,-0.19252288,1.1351285,0.46508062,20.44,-25.62,-58.24,28,168.0,2.5492876
1784071001733,-0.22912417,1.1287843,0.42677125,18.48,-35.35,-51.8,28,168.0,2.5492876
1784071001733,-0.22839217,1.1348845,0.38138562,10.71,-41.72,-43.54,28,168.0,2.5492876
1784071001733,-0.19081481,1.149281,0.34258825,-3.01,-44.59,-35.21,28,168.0,2.5492876
1784071001733,-0.15860566,1.120244,0.31501526,-11.69,-45.01,-27.58,29,174.0,2.5492876
1784071001733,-0.11541612,1.1185359,0.2859782,-15.4,-43.96,-20.58,29,174.0,2.5492876
1784071001733,-0.049045753,1.1331764,0.2823181,-16.17,-42.77,-14.42,29,174.0,2.5492876
1784071001733,0.027084969,1.1185359,0.27548584,-14.77,-41.51,-10.36,29,174.0,2.5492876
1784071001744,0.095407404,1.119512,0.27060568,-14.63,-40.39,-8.47,29,174.0,2.5492876
1784071001744,0.14250109,1.0777864,0.28744227,-15.05,-39.41,-7.98,29,174.0,2.5492876
1784071001744,0.16812201,1.0294727,0.27548584,-12.81,-39.69,-8.4,29,174.0,2.5492876
1784071001744,0.18837473,0.9760349,0.26499346,-10.36,-40.95,-8.82,29,174.0,2.5492876
1784071001744,0.17959042,0.9133246,0.25084096,-7.35,-42.35,-9.31,29,174.0,2.5492876
1784071001744,0.17056209,0.86110675,0.26718953,-4.2,-43.89,-9.17,29,174.0,2.5492876
1784071001744,0.13225272,0.81791717,0.28719825,-0.35,-45.920002,-8.26,29,174.0,2.5492876
1784071001744,0.09662745,0.7908322,0.2962266,4.27,-48.44,-6.51,29,174.0,2.5492876
1784071001872,0.064906314,0.7793639,0.2962266,8.82,-51.59,-4.2,29,174.0,2.5492876
1784071001872,0.043677557,0.7864401,0.29891068,11.69,-55.09,-1.6800001,29,174.0,2.5492876
1784071001872,0.026352942,0.80498475,0.30208278,13.72,-58.170002,0.91,29,174.0,2.5492876
1784071001872,-0.0046361657,0.83255774,0.29891068,15.68,-60.06,3.22,29,174.0,2.5492876
1784071001872,-0.042457517,0.867695,0.28988236,20.65,-60.760002,4.97,29,174.0,2.5492876
1784071001872,-0.052705884,0.8872157,0.2906144,26.32,-60.97,5.88,29,174.0,2.5492876
1784071001872,-0.06856645,0.91381264,0.28158605,29.12,-60.83,5.39,29,174.0,2.5492876
1784071001872,-0.054169938,0.90966445,0.26889762,31.15,-61.6,3.92,29,174.0,2.5492876
1784071001918,-0.044653594,0.9182047,0.2606013,30.17,-63.56,2.31,29,174.0,2.5492876
1784071001918,-0.039773423,0.9262571,0.24840085,26.18,-65.94,-0.21000001,29,174.0,2.5492876
1784071001918,-0.05465795,0.91771674,0.23351634,22.47,-67.83,-3.43,29,174.0,2.5492876
1784071001918,-0.064906314,0.9103965,0.21667975,19.81,-69.090004,-7.07,29,174.0,2.5492876
1784071001918,-0.06905446,0.90088016,0.19276689,16.66,-70.56,-11.13,29,174.0,2.5492876
1784071001918,-0.0783268,0.897952,0.17007408,13.3,-71.82,-15.68,29,174.0,2.5492876
1784071001918,-0.09443137,0.8794074,0.1566536,9.03,-73.85,-19.95,29,174.0,2.5492876
1784071001918,-0.076374725,0.869647,0.13420479,7.28,-75.6,-23.8,29,174.0,2.5492876
1784071002009,-0.043189544,0.88550764,0.12273638,10.57,-75.74,-26.6,29,174.0,2.5492876
1784071002009,-0.016348584,0.93528545,0.14494118,11.2,-76.79,-28.630001,29,174.0,2.5492876
1784071002009,-0.0070762527,0.96798253,0.10175163,5.95,-77.28,-28.7,29,174.0,2.5492876
1784071002009,0.014640523,1.0089761,0.042213507,3.29,-73.57,-26.74,29,174.0,2.5492876
1784071002009,0.06563834,0.99335945,0.040505446,1.19,-68.25,-25.48,29,174.0,2.5492876
1784071002009,0.11566014,0.96334636,0.027084969,2.03,-64.61,-27.51,29,174.0,2.5492876
1784071002009,0.11614815,0.9477298,0.01708061,5.04,-60.41,-31.01,29,174.0,2.5492876
1784071002009,0.16446187,0.9584662,0.031233115,-3.5,-64.61,-32.55,29,174.0,2.5492876
1784071002094,0.15543355,0.9777429,0.07320262,-11.76,-61.6,-32.41,29,174.0,2.5492876
1784071002094,0.2186318,0.9931154,0.067590415,-13.02,-61.6,-31.29,29,174.0,2.5492876
1784071002094,0.22790413,0.9833551,0.12273638,-13.2300005,-60.55,-30.380001,29,174.0,2.5492876
1784071002094,0.22424401,0.9821351,0.17593028,-8.75,-59.64,-29.4,29,174.0,2.5492876
1784071002094,0.17544226,1.0099521,0.21399564,1.12,-60.760002,-26.95,29,174.0,2.5492876
1784071002094,0.1202963,1.0672941,0.26792157,6.3,-63.420002,-21.63,29,174.0,2.5492876
1784071002094,0.065882355,1.0946231,0.25986928,7.0,-63.28,-15.190001,29,174.0,2.5492876
1784071002094,0.037577342,1.0831547,0.26792157,3.64,-61.04,-8.82,29,174.0,2.5492876
1784071002159,0.021716775,1.0533856,0.3030588,-4.2,-59.71,-2.8700001,29,174.0,2.5492876
1784071002159,0.048313726,1.0314249,0.29720262,-10.29,-58.31,2.94,29,174.0,2.5492876
1784071002159,0.09711547,1.005804,0.32575163,-8.4,-55.72,8.26,29,174.0,2.5492876
1784071002159,0.14347713,1.0040959,0.37601742,-2.94,-54.88,12.74,29,174.0,2.5492876
1784071002159,0.13200872,1.0014118,0.35893682,0.63,-54.46,16.52,29,174.0,2.5492876
1784071002159,0.11810021,0.9828671,0.33624402,3.64,-53.760002,19.39,29,174.0,2.5492876
1784071002159,0.070030496,0.95212203,0.33502397,3.57,-55.65,20.86,29,174.0,2.5492876
1784071002159,0.03025708,0.9338214,0.3025708,-1.26,-59.010002,21.7,29,174.0,2.5492876
1784071002278,-0.0014640522,0.91381264,0.29695863,-8.4,-62.65,21.35,29,174.0,2.5492876
1784071002278,-0.013908497,0.9045403,0.31306317,-13.37,-65.03,19.04,29,174.0,2.5492876
1784071002278,0.009760349,0.9306493,0.2889063,-13.79,-64.47,13.2300005,29,174.0,2.5492876
1784071002278,-0.09296732,0.89380395,0.29817864,-10.85,-61.11,7.63,29,174.0,2.5492876
1784071002278,-0.11810021,0.83646184,0.29451853,-20.65,-61.53,2.03,29,174.0,2.5492876
1784071002278,-0.20008714,0.79278433,0.38626578,-23.87,-64.54,-4.97,29,174.0,2.5492876
1784071002278,-0.1459172,0.8442701,0.3335599,-21.98,-65.73,-10.92,29,174.0,2.5492876
1784071002278,-0.15348148,0.83206975,0.3530806,-18.55,-66.64,-14.56,29,174.0,2.5492876
1784071002291,-0.14152505,0.83939,0.37382135,-13.86,-67.2,-14.9800005,29,174.0,2.5492876
1784071002291,-0.14176907,0.8498824,0.36308497,-10.64,-63.63,-12.88,29,174.0,2.5492876
1784071002291,-0.11322004,0.8589107,0.33624402,-4.34,-61.39,-9.31,29,174.0,2.5492876
1784071002291,-0.09028322,0.8701351,0.29842266,-0.49,-59.99,-4.69,29,174.0,2.5492876
1784071002291,-0.073446624,0.8906318,0.25864923,5.67,-59.71,-0.14,29,174.0,2.5492876
1784071002291,-0.06978649,0.9543181,0.21350762,11.41,-60.34,3.57,29,174.0,2.5492876
1784071002291,-0.055389978,1.0038519,0.20228322,13.72,-61.670002,5.7400002,29,174.0,2.5492876
1784071002291,-0.04953377,1.0289848,0.18642265,21.35,-63.28,5.7400002,29,174.0,2.5492876
1784071002324,-0.029037038,1.1034074,0.16226579,26.81,-66.15,2.38,29,174.0,2.5492876
1784071002324,-0.07783878,1.1465969,0.16397385,23.94,-67.13,-1.47,29,174.0,2.5492876
1784071002324,-0.043189544,1.1329324,0.19471896,29.12,-64.54,-6.86,29,174.0,2.5492876
1784071002324,-0.05563399,1.1902745,0.13835293,29.33,-56.77,-14.14,29,174.0,2.5492876
1784071002324,-0.09125926,1.1331764,0.18910675,26.25,-45.57,-20.79,29,174.0,2.5492876
1784071002324,-0.09174728,1.1031634,0.13640088,29.960001,-34.09,-25.9,29,174.0,2.5492876
1784071002324,-0.07710675,1.1221961,0.14396514,33.670002,-23.38,-29.05,29,174.0,2.5492876
1784071002324,-0.058562092,1.1234161,0.13396078,35.63,-13.93,-28.98,29,174.0,2.5492876
1784071002456,-0.033429194,1.1468409,0.1146841,34.44,-6.23,-25.76,29,174.0,2.5492876
1784071002456,-0.011712418,1.1578214,0.110779956,26.81,0.28,-20.58,29,174.0,2.5492876
1784071002456,0.01146841,1.1012113,0.1285926,15.05,6.23,-14.07,29,174.0,2.5492876
1784071002456,0.035137255,1.0287408,0.14372113,15.47,8.54,-7.21,29,174.0,2.5492876
1784071002456,0.04660566,1.00922,0.14372113,19.04,10.99,-2.17,29,174.0,2.5492876
1784071002456,0.050021786,0.99433553,0.15055338,19.81,12.25,1.19,29,174.0,2.5492876
1784071002456,0.032941177,0.98067105,0.15030937,17.64,13.09,3.22,29,174.0,2.5492876
1784071002456,0.017812636,0.95675814,0.16861002,6.7200003,15.190001,4.62,29,174.0,2.5492876
1784071002549,0.019764706,0.94675374,0.17056209,0.42000002,16.17,5.46,29,174.0,2.5492876
1784071002549,-0.021228759,0.92162085,0.15372549,-2.52,16.45,5.7400002,29,174.0,2.5492876
1784071002549,-0.053193897,0.92332894,0.15811765,-1.96,17.43,5.53,29,174.0,2.5492876
1784071002549,-0.09125926,0.91137254,0.15372549,-0.7,19.18,5.25,29,174.0,2.5492876
1784071002549,-0.12200436,0.92381704,0.15226144,5.25,20.44,4.55,29,174.0,2.5492876
1784071002549,-0.124688454,0.91771674,0.15640959,15.26,21.7,3.57,29,174.0,2.5492876
1784071002549,-0.1288366,0.93504137,0.14616123,23.24,22.4,2.31,29,174.0,2.5492876
1784071002549,-0.13396078,0.95285404,0.14274509,23.31,22.12,0.77,29,174.0,2.5492876
1784071002557,-0.12224837,0.9623704,0.13322876,18.06,21.07,-0.56,29,174.0,2.5492876
1784071002557,-0.10297168,0.9660305,0.1263965,11.27,20.02,-1.19,29,174.0,2.5492876
1784071002557,-0.087355115,0.9572462,0.11907625,3.29,18.69,-1.33,29,174.0,2.5492876
1784071002557,-0.06929847,0.94358176,0.117856205,-3.43,17.15,-0.56,29,174.0,2.5492876
1784071002557,-0.054169938,0.9377255,0.109071895,-8.12,16.24,0.91,29,174.0,2.5492876
1784071002557,-0.039773423,0.92259693,0.097603485,-11.55,15.61,2.59,29,174.0,2.5492876
1784071002557,-0.03416122,0.90624833,0.08906318,-14.0,14.7,4.27,29,174.0,2.5492876
1784071002557,-0.029525053,0.8984401,0.07491068,-15.54,13.65,6.16,29,174.0,2.5492876
1784071002639,-0.028793028,0.8879477,0.054901965,-17.22,12.74,7.84,29,174.0,2.5492876
1784071002639,-0.03025708,0.8747712,0.03562527,-18.62,12.04,9.38,29,174.0,2.5492876
1784071002639,-0.03196514,0.86086273,0.022204792,-19.88,11.55,11.13,29,174.0,2.5492876
1784071002639,-0.04343355,0.8437821,0.005124183,-21.210001,10.92,12.74,29,174.0,2.5492876
1784071002639,-0.03562527,0.8315817,-0.02074074,-20.58,10.5,13.58,29,174.0,2.5492876
1784071002639,-0.061490197,0.8142571,-0.034893245,-16.52,10.22,13.86,29,174.0,2.5492876
1784071002639,-0.06393028,0.80010456,-0.052705884,-11.27,10.15,13.72,29,174.0,2.5492876
1784071002639,-0.065394334,0.8005926,-0.07076252,-7.4900002,10.64,13.3,29,174.0,2.5492876
1784071002729,-0.08808714,0.79742044,-0.08345098,-4.76,10.78,12.81,29,174.0,2.5492876
1784071002729,-0.11517211,0.79620045,-0.087355115,-3.78,11.34,11.97,29,174.0,2.5492876
1784071002729,-0.14445315,0.80498475,-0.07735076,-0.7,12.46,11.34,29,174.0,2.5492876
1784071002729,-0.18276253,0.83426577,-0.06100218,1.19,14.84,10.85,29,174.0,2.5492876
1784071002729,-0.18154249,0.8840436,-0.044653594,-1.61,19.11,11.41,29,174.0,2.5492876
1784071002729,-0.16128977,0.9099085,-0.021472767,-7.56,22.47,12.46,29,174.0,2.5492876
1784071002729,-0.1512854,0.9433376,0.011224401,-10.29,26.39,13.79,29,174.0,2.5492876
1784071002729,-0.11541612,0.96529853,0.025620917,-9.38,30.8,15.190001,29,174.0,2.5492876
1784071002774,-0.08881917,0.98725927,0.058074076,-7.77,36.61,16.52,29,174.0,2.5492876
1784071002774,-0.06954248,0.98067105,0.07539869,-8.96,41.65,17.36,29,174.0,2.5492876
1784071002774,-0.043677557,0.97261876,0.06344226,-6.86,45.22,17.710001,29,174.0,2.5492876
1784071002774,-0.0063442267,0.92869717,0.114196084,-13.440001,48.02,17.64,29,174.0,2.5492876
1784071002774,-0.008784314,0.8759913,0.34112418,-11.41,55.09,17.43,29,174.0,2.5492876
1784071002774,0.004148148,0.90600437,0.32623965,-8.82,62.72,16.73,29,174.0,2.5492876
1784071002774,-0.0107363835,0.8630588,0.5404793,-2.45,72.87,16.1,29,174.0,2.5492876
1784071002774,-0.013176471,0.9406536,0.58976907,20.86,84.14,11.97,29,174.0,2.5492876
1784071002864,-0.048801742,0.9574902,0.6105098,23.87,95.76,5.46,29,174.0,2.5492876
1784071002864,0.042213507,1.0914509,0.79693246,24.15,108.57,-5.46,29,174.0,2.5492876
1784071002864,0.45922443,1.430623,0.812793,31.29,112.0,-25.34,29,174.0,2.5492876
1784071002864,0.7922963,1.7410021,0.700305,23.52,101.08,-55.3,29,174.0,2.5492876
1784071002864,0.5016819,1.761987,0.71494555,4.27,89.53,-79.66,29,174.0,2.5492876
1784071002864,-0.062222224,1.708061,0.5414553,-0.77,81.27,-89.53,29,174.0,2.5492876
1784071002864,-0.46337253,1.4872332,0.30037472,6.37,67.9,-82.74,29,174.0,2.5492876
1784071002864,-0.755207,1.2690893,0.21472767,7.7,50.89,-64.12,29,174.0,2.5492876
1784071002954,-0.75203484,1.095355,0.21057951,-4.34,37.94,-38.85,29,174.0,2.5492876
1784071002954,-0.587329,0.94675374,0.17715032,-22.05,31.29,-14.14,30,180.0,2.5492876
1784071002954,-0.37699345,0.8803835,0.09443137,-28.35,29.19,7.91,30,180.0,2.5492876
1784071002954,-0.17666231,0.84329414,0.13542484,-31.22,28.630001,24.15,30,180.0,2.5492876
1784071002954,-0.07149455,0.9208889,0.15299346,-20.65,29.61,36.26,30,180.0,2.5492876
1784071002954,0.033185184,0.8781873,0.24400872,-12.46,29.33,44.38,30,180.0,2.5492876
1784071002954,0.110779956,0.9191808,0.24522875,-4.9,30.66,47.25,30,180.0,2.5492876
1784071002954,0.14054902,1.037525,0.22277994,-5.95,32.2,46.06,30,180.0,2.5492876
1784071002999,0.17300218,1.1029193,0.21692374,-14.28,35.35,41.51,30,180.0,2.5492876
1784071002999,0.20521133,1.0746144,0.19545099,-19.6,40.88,34.09,30,180.0,2.5492876
1784071002999,0.18642265,1.0160522,0.19252288,-21.91,43.61,25.48,30,180.0,2.5492876
1784071002999,0.22717212,0.9128366,0.17568627,-16.31,40.18,17.85,30,180.0,2.5492876
1784071002999,0.16568191,0.8376819,0.21179956,-11.83,44.73,11.13,30,180.0,2.5492876
1784071002999,0.20228322,0.82255334,0.1481133,-3.15,45.22,6.16,30,180.0,2.5492876
1784071002999,0.16177778,0.7988845,0.1627538,3.3600001,45.78,4.41,30,180.0,2.5492876
1784071002999,0.1202963,0.81059694,0.16128977,11.69,47.74,5.67,30,180.0,2.5492876
1784071003135,0.059050106,0.88331157,0.16836601,20.44,48.72,10.43,30,180.0,2.5492876
1784071003135,0.037577342,0.92601305,0.20447929,20.23,49.0,17.5,30,180.0,2.5492876
1784071003135,0.00951634,0.92650104,0.21375164,18.27,48.58,23.94,30,180.0,2.5492876
1784071003135,-0.025376907,0.9450457,0.19959912,21.210001,48.44,28.49,30,180.0,2.5492876
1784071003135,-0.04684967,0.9543181,0.19740304,22.54,46.69,30.8,30,180.0,2.5492876
1784071003135,-0.08174292,0.9450457,0.18813072,24.92,44.03,30.73,30,180.0,2.5492876
1784071003135,-0.118832245,0.95675814,0.18739869,21.91,40.95,28.84,30,180.0,2.5492876
1784071003135,-0.1459172,0.9694466,0.1820305,18.9,37.38,25.48,30,180.0,2.5492876
1784071003156,-0.17251417,0.9540741,0.15811765,17.92,33.25,21.28,30,180.0,2.5492876
1784071003156,-0.16446187,0.95138997,0.14908932,14.42,30.03,16.66,30,180.0,2.5492876
1784071003156,-0.17275818,0.9460218,0.13884096,9.52,28.0,12.46,30,180.0,2.5492876
1784071003156,-0.16104576,0.9377255,0.1285926,5.25,25.83,8.54,30,180.0,2.5492876
1784071003156,-0.1542135,0.923573,0.12151635,1.19,23.66,4.83,30,180.0,2.5492876
1784071003156,-0.13054466,0.90649235,0.105655774,-2.38,21.98,1.54,30,180.0,2.5492876
1784071003156,-0.09491939,0.9055164,0.10199564,-5.81,20.86,-1.05,30,180.0,2.5492876
1784071003156,-0.06929847,0.9082004,0.09857952,-8.19,20.23,-3.15,30,180.0,2.5492876
1784071003224,-0.042701527,0.9164967,0.09369934,-10.15,20.09,-4.41,30,180.0,2.5492876
1784071003224,-0.02269281,0.93870157,0.08759913,-11.83,20.23,-5.11,30,180.0,2.5492876
1784071003224,2.4400871E-4,0.95627016,0.07759477,-13.440001,20.51,-5.18,30,180.0,2.5492876
1784071003224,0.01903268,0.9728627,0.07930283,-16.17,21.07,-5.04,30,180.0,2.5492876
1784071003224,0.03562527,0.98408717,0.07149455,-20.09,21.7,-4.97,30,180.0,2.5492876
1784071003224,0.050509803,0.9748148,0.065394334,-24.85,22.19,-4.83,30,180.0,2.5492876
1784071003224,0.068810456,0.9577342,0.06271024,-29.960001,22.4,-4.76,30,180.0,2.5492876
1784071003224,0.07491068,0.9482178,0.04733769,-34.79,22.26,-4.48,30,180.0,2.5492876
1784071003357,0.07198257,0.92650104,0.029525053,-41.02,21.07,-4.48,30,180.0,2.5492876
1784071003357,0.08467103,0.8989281,0.063686274,-46.13,20.23,-4.55,30,180.0,2.5492876
1784071003357,0.06515033,0.8857516,0.027816994,-48.79,20.02,-4.41,30,180.0,2.5492876
1784071003357,0.05148584,0.86696297,0.0012200436,-47.670002,21.7,-4.06,30,180.0,2.5492876
1784071003357,-0.0031721133,0.85232246,-0.047093682,-43.19,24.710001,-3.99,30,180.0,2.5492876
1784071003357,-0.037089325,0.84500223,-0.07759477,-33.46,30.59,-4.55,30,180.0,2.5492876
1784071003357,-0.032453157,0.77399564,-0.11248801,-25.06,36.12,-5.11,30,180.0,2.5492876
1784071003357,-9.7603485E-4,0.7788758,-0.090039216,-15.96,41.23,-4.97,30,180.0,2.5492876
1784071003370,0.056366015,0.80230063,-0.04172549,-2.94,38.71,-4.48,30,180.0,2.5492876
1784071003370,0.049777776,0.811817,0.108339876,5.46,38.71,-4.62,30,180.0,2.5492876
1784071003370,0.06563834,0.8750153,0.26450545,13.86,33.53,-4.13,30,180.0,2.5492876
1784071003370,0.086623095,0.9369935,0.3535686,20.16,23.17,-3.85,30,180.0,2.5492876
1784071003370,0.04343355,0.9743268,0.36845317,17.22,13.2300005,-5.04,30,180.0,2.5492876
1784071003370,-0.08857516,0.9611503,0.30379084,8.47,10.71,-6.65,30,180.0,2.5492876
1784071003370,-0.1259085,0.96749455,0.19837908,13.02,11.13,-6.65,30,180.0,2.5492876
1784071003370,-0.11175599,0.99433553,0.04782571,30.73,10.85,-3.3600001,30,180.0,2.5492876
1784071003449,-0.09491939,0.99750763,0.040993463,38.43,9.1,1.33,30,180.0,2.5492876
1784071003449,-0.064906314,0.98872334,0.11395206,16.52,5.39,5.18,30,180.0,2.5492876
1784071003449,0.013176471,0.979451,-0.03586928,-12.32,9.17,9.17,30,180.0,2.5492876
1784071003449,0.114928104,0.95212203,0.012200436,-16.38,16.8,11.2,30,180.0,2.5492876
1784071003449,0.251573,0.94748586,0.39309806,-3.22,20.16,12.46,30,180.0,2.5492876
1784071003449,0.13786492,1.0475295,0.30696297,10.57,32.13,15.33,30,180.0,2.5492876
1784071003449,-0.013176471,1.1092637,0.08296296,13.79,43.68,17.710001,30,180.0,2.5492876
1784071003449,-0.032941177,1.1375687,0.2889063,14.14,44.52,18.55,30,180.0,2.5492876
1784071003539,-0.0644183,1.2344401,0.46117648,13.09,38.36,20.58,30,180.0,2.5492876
1784071003539,-0.11395206,1.2788496,0.54413944,22.4,36.26,25.55,30,180.0,2.5492876
1784071003539,-0.20691939,1.3264314,0.41945097,40.18,38.22,32.69,30,180.0,2.5492876
1784071003539,-0.3303878,1.4137865,0.22644009,34.16,32.83,42.420002,30,180.0,2.5492876
1784071003539,-0.33966014,1.3117908,0.18007843,4.13,25.13,50.47,30,180.0,2.5492876
1784071003539,-0.1651939,1.1656296,0.063686274,-14.63,25.62,53.55,31,186.0,2.5492876
1784071003539,0.0031721133,1.0955992,0.14445315,-9.59,27.72,53.62,31,186.0,2.5492876
1784071003539,0.067102395,1.0709543,0.30915904,4.2,29.960001,52.57,31,186.0,2.5492876
1784071003629,0.06929847,1.062658,0.44189978,11.97,35.0,51.8,31,186.0,2.5492876
1784071003629,-0.015372549,1.0406972,0.42481914,10.29,44.87,51.59,31,186.0,2.5492876
1784071003629,-0.12566449,0.9892113,0.41359478,6.7200003,52.78,52.15,31,186.0,2.5492876
1784071003629,-0.2466928,0.99433553,0.3865098,3.43,57.33,54.74,31,186.0,2.5492876
1784071003629,-0.30940303,0.9640784,0.37138125,0.49,58.1,58.38,31,186.0,2.5492876
1784071003629,-0.336,0.9143006,0.38504577,10.64,56.21,60.55,31,186.0,2.5492876
1784071003629,-0.30915904,1.0314249,0.392122,16.94,53.41,60.97,31,186.0,2.5492876
1784071003629,-0.3030588,1.1365926,0.3330719,20.79,48.51,56.420002,31,186.0,2.5492876
1784071003674,-0.3164793,1.2385882,0.29793465,7.7,42.35,47.25,31,186.0,2.5492876
1784071003674,-0.35283658,1.2398083,0.24400872,-5.39,34.02,35.0,31,186.0,2.5492876
1784071003674,-0.46361658,1.1729499,0.28622222,-18.55,23.24,19.95,31,186.0,2.5492876
1784071003674,-0.4006623,1.1536732,0.23668844,-13.93,7.7,5.95,31,186.0,2.5492876
1784071003674,-0.5255948,1.0541177,0.27572984,-14.0,1.96,-6.09,31,186.0,2.5492876
1784071003674,-0.45727232,1.0460653,0.29037037,-21.7,3.08,-14.77,32,186.0,2.5492876
1784071003674,-0.4599564,0.9565141,0.2747538,-24.36,5.6,-19.460001,32,186.0,2.5492876
1784071003674,-0.4038344,0.87647927,0.3059869,-23.73,5.04,-21.28,32,186.0,2.5492876
1784071003764,-0.37723747,0.8301177,0.28646624,-16.17,5.04,-21.84,32,186.0,2.5492876
1784071003764,-0.31428322,0.8545185,0.28256208,-14.63,3.85,-20.58,32,186.0,2.5492876
1784071003764,-0.2584052,0.84890634,0.29305446,-16.31,1.75,-18.69,32,186.0,2.5492876
1784071003764,-0.22204792,0.8557386,0.28549019,-15.190001,-0.21000001,-16.8,32,186.0,2.5492876
1784071003764,-0.18642265,0.84231806,0.29451853,-11.55,-1.33,-14.56,32,186.0,2.5492876
1784071003764,-0.14640523,0.8720872,0.2881743,-8.75,-2.8700001,-11.97,32,186.0,2.5492876
1784071003764,-0.101019606,0.8852636,0.2967146,-7.98,-3.78,-9.03,32,186.0,2.5492876
1784071003764,-0.075154684,0.89697605,0.28378212,-8.82,-4.27,-6.44,32,186.0,2.5492876
1784071003809,-0.056366015,0.8847756,0.2713377,-10.08,-5.18,-4.97,32,186.0,2.5492876
1784071003809,-0.04562963,0.87843144,0.2627974,-13.86,-6.79,-4.9,32,186.0,2.5492876
1784071003809,-0.029281046,0.85159045,0.23034422,-18.2,-8.82,-5.46,32,186.0,2.5492876
1784071003809,-0.026840959,0.8040087,0.21179956,-20.02,-11.55,-5.95,32,186.0,2.5492876
1784071003809,-0.039285403,0.7815599,0.18739869,-17.5,-14.84,-7.07,32,186.0,2.5492876
1784071003809,-0.058074076,0.756183,0.17739433,-13.79,-17.99,-8.12,32,186.0,2.5492876
1784071003809,-0.08467103,0.7591111,0.15226144,-10.5,-20.72,-8.61,32,186.0,2.5492876
1784071003809,-0.13054466,0.78546405,0.13664488,-16.73,-21.7,-8.61,32,186.0,2.5492876
1784071003899,-0.16397385,0.7225098,0.13981698,-18.69,-22.4,-7.4900002,32,186.0,2.5492876
1784071003899,-0.19154684,0.7864401,0.08906318,-13.72,-22.89,-5.88,32,186.0,2.5492876
1784071003899,-0.19447495,0.7922963,0.0951634,-10.08,-23.1,-3.43,32,186.0,2.5492876
1784071003899,-0.18398258,0.81376904,0.0756427,-8.68,-22.75,-0.35,32,186.0,2.5492876
1784071003899,-0.14786929,0.82694554,0.073934644,-9.45,-21.77,2.94,32,186.0,2.5492876
1784071003899,-0.1263965,0.8284096,0.06295425,-10.5,-20.02,6.3,32,186.0,2.5492876
1784071003899,-0.09125926,0.84134203,0.053681917,-10.43,-17.710001,9.17,32,186.0,2.5492876
1784071003899,-0.06563834,0.8513464,0.04587364,-12.6,-15.68,11.9,32,186.0,2.5492876
1784071004075,-0.061734203,0.8618388,0.014640523,-15.26,-13.2300005,14.56,32,186.0,2.5492876
1784071004075,-0.05783007,0.86989105,-0.0039041394,-17.57,-10.15,16.94,32,186.0,2.5492876
1784071004075,-0.04953377,0.86110675,-0.0056122006,-18.48,-6.93,18.62,32,186.0,2.5492876
1784071004075,-0.05465795,0.85988665,-0.043921567,-17.78,-4.9,19.32,32,186.0,2.5492876
1784071004075,-0.085403055,0.8420741,-0.053925924,-17.22,-3.71,19.460001,32,186.0,2.5492876
1784071004075,-0.11248801,0.8257255,-0.054169938,-16.1,-1.47,19.32,32,186.0,2.5492876
1784071004075,-0.13469282,0.8091329,-0.07149455,-11.62,1.33,18.76,32,186.0,2.5492876
1784071004075,-0.1146841,0.8501264,-0.03416122,-6.93,3.92,16.87,32,186.0,2.5492876
1784071004084,-0.11126798,0.77716774,-0.084915034,-1.89,6.79,16.66,32,186.0,2.5492876
1784071004084,-0.1093159,0.783268,-0.051973857,0.77,9.87,16.45,32,186.0,2.5492876
1784071004084,-0.13566884,0.76447934,0.026596949,5.46,16.1,16.31,32,186.0,2.5492876
1784071004084,-0.13542484,0.78278,0.10345969,16.1,24.29,16.8,32,186.0,2.5492876
1784071004084,-0.10980393,0.83133763,0.16909803,23.45,30.87,17.57,32,186.0,2.5492876
1784071004084,-0.07613072,0.8794074,0.19545099,30.52,37.24,19.11,32,186.0,2.5492876
1784071004084,-0.06417429,0.94236165,0.13640088,35.84,41.16,20.23,32,186.0,2.5492876
1784071004084,-0.073446624,0.94894993,0.10297168,41.51,39.97,18.76,32,186.0,2.5492876
1784071004123,-0.09906754,0.9696906,0.084427014,47.81,36.4,13.79,32,186.0,2.5492876
1784071004123,-0.10614379,0.9284532,0.0588061,49.35,29.68,5.81,32,186.0,2.5492876
1784071004123,-0.12224837,0.89429194,-0.07442266,42.63,15.05,-2.66,32,186.0,2.5492876
1784071004123,-0.19179085,0.80327666,0.13054466,35.98,1.05,-7.56,32,186.0,2.5492876
1784071004123,-0.4084706,0.80937696,0.33209586,36.54,-1.61,-12.74,32,186.0,2.5492876
1784071004123,-0.5460915,0.9257691,0.21936384,42.35,0.07,-19.32,32,186.0,2.5492876
1784071004123,-0.4860654,0.9262571,0.279878,40.88,3.22,-26.18,32,186.0,2.5492876
1784071004123,-0.42335513,0.9055164,0.45532027,52.78,8.26,-29.68,32,186.0,2.5492876
1784071004216,-0.2608453,1.0514336,0.6363748,63.56,22.19,-33.74,32,186.0,2.5492876
1784071004216,-0.015860565,1.1551372,0.4965577,63.07,32.62,-38.57,32,186.0,2.5492876
1784071004216,0.21643573,1.2817777,0.6705359,68.74,44.45,-46.2,32,186.0,2.5492876
1784071004216,0.24010459,1.7356341,1.0711982,104.23,69.23,-66.71,32,186.0,2.5492876
1784071004216,0.3274597,1.9015598,0.6073377,129.22,79.87,-94.71,32,186.0,2.5492876
1784071004216,0.6751721,1.763451,0.39578214,58.8,52.5,-114.520004,32,186.0,2.5492876
1784071004216,0.32672766,1.5755643,0.74593467,18.9,32.48,-120.12,32,186.0,2.5492876
1784071004216,-0.15787365,1.593621,0.62124616,34.3,18.27,-113.54,32,186.0,2.5492876
1784071004259,-0.4458039,1.5311546,0.5170545,43.54,9.38,-95.48,32,186.0,2.5492876
1784071004259,-0.54243135,1.4313551,0.30671895,27.79,2.73,-65.31,32,186.0,2.5492876
1784071004259,-0.40651852,1.3386319,0.23937255,2.66,-4.06,-30.380001,32,186.0,2.5492876
1784071004259,-0.15445751,1.3093507,0.23888454,-21.42,0.49,1.6800001,32,186.0,2.5492876
1784071004259,0.09394335,1.1419607,0.30061874,-24.43,13.3,20.86,33,186.0,2.5492876
1784071004259,0.14201307,1.3410718,0.23717648,-10.29,22.960001,32.69,33,186.0,2.5492876
1784071004259,0.18325055,1.3388758,0.33233985,-13.3,26.25,37.52,33,186.0,2.5492876
1784071004259,0.22277994,1.3293594,0.32257953,-18.48,27.72,38.01,33,186.0,2.5492876
1784071004349,0.25352505,1.28617,0.25669715,-19.32,30.31,34.93,33,186.0,2.5492876
1784071004349,0.24230066,1.2241917,0.22009587,-24.5,33.6,31.08,33,186.0,2.5492876
1784071004349,0.23766449,1.1563573,0.19715904,-28.49,38.99,27.44,34,192.0,2.5492876
1784071004349,0.21277559,1.0685141,0.17617428,-31.92,45.22,23.59,34,192.0,2.5492876
1784071004349,0.17519826,1.007268,0.17763834,-28.98,51.38,20.16,34,192.0,2.5492876
1784071004349,0.09857952,0.9404096,0.21521568,-25.83,57.05,18.55,34,192.0,2.5492876
1784071004349,0.06515033,0.8591547,0.19496296,-22.54,60.2,18.2,34,192.0,2.5492876
1784071004349,0.012688453,0.8064488,0.18617864,-16.45,61.74,18.34,34,192.0,2.5492876
1784071004394,-0.013908497,0.784488,0.17739433,-8.96,61.46,20.72,34,192.0,2.5492876
1784071004394,-0.067102395,0.73446625,0.1649499,-3.64,60.2,24.15,34,192.0,2.5492876
1784071004394,-0.06344226,0.74715465,0.15787365,-2.24,56.28,27.93,34,192.0,2.5492876
1784071004394,-0.054169938,0.73446625,0.14884531,-4.76,52.22,31.57,34,192.0,2.5492876
1784071004394,-0.08637909,0.7203137,0.13688889,-7.98,47.81,34.16,34,192.0,2.5492876
1784071004394,-0.09979956,0.6966449,0.1259085,-9.45,43.82,34.79,34,192.0,2.5492876
1784071004394,-0.10419172,0.68664056,0.1146841,-13.86,40.74,33.88,34,192.0,2.5492876
1784071004394,-0.10785185,0.6332026,0.09735948,-15.68,38.36,31.36,34,192.0,2.5492876
1784071004484,-0.105655774,0.6210022,0.08247495,-15.89,36.61,27.65,34,192.0,2.5492876
1784071004484,-0.0922353,0.6144139,0.07417865,-14.28,35.07,22.960001,34,192.0,2.5492876
1784071004484,-0.1037037,0.6339347,0.054169938,-12.39,33.39,18.48,34,192.0,2.5492876
1784071004484,-0.089551196,0.64003485,0.060758173,-13.02,31.64,13.72,34,192.0,2.5492876
1784071004484,-0.08564706,0.6263704,0.054901965,-13.93,30.03,8.68,34,192.0,2.5492876
1784071004484,-0.051973857,0.6680958,0.02830501,-15.47,28.210001,4.06,34,192.0,2.5492876
1784071004484,-0.032453157,0.6976209,0.03806536,-17.710001,27.02,-0.14,34,192.0,2.5492876
1784071004484,-0.025864923,0.728854,0.048069715,-16.1,26.18,-3.99,34,192.0,2.5492876
1784071004574,-0.037577342,0.7534989,0.05343791,-5.11,25.76,-8.33,34,192.0,2.5492876
1784071004574,-0.06734641,0.7239738,0.006100218,-3.08,27.02,-11.4800005,34,192.0,2.5492876
1784071004574,-0.050265793,0.7461786,-0.0073202616,-1.26,28.07,-13.65,34,192.0,2.5492876
1784071004574,-0.03611329,0.7703355,0.03586928,4.27,28.14,-15.47,34,192.0,2.5492876
1784071004574,-0.033673204,0.80010456,0.037089325,11.06,26.880001,-17.08,34,192.0,2.5492876
1784071004574,-0.020252723,0.82816565,0.054169938,11.4800005,24.22,-17.22,34,192.0,2.5492876
1784071004574,0.010248366,0.83914596,0.064906314,11.97,21.49,-16.31,34,192.0,2.5492876
1784071004574,0.023668844,0.86842704,0.102727674,13.16,18.13,-14.0,34,192.0,2.5492876
1784071004665,0.02074074,0.9169848,0.1285926,11.69,15.75,-10.29,34,192.0,2.5492876
1784071004665,0.0107363835,0.95993024,0.120540306,9.03,15.96,-5.67,34,192.0,2.5492876
1784071004665,4.8801742E-4,0.98847926,0.17471023,7.4900002,16.8,-1.47,34,192.0,2.5492876
1784071004665,0.008540305,1.036305,0.21667975,6.79,16.87,2.31,34,192.0,2.5492876
1784071004665,0.039529413,1.0775425,0.2157037,7.21,14.7,5.46,34,192.0,2.5492876
1784071004665,0.043921567,1.0973072,0.17397821,6.37,10.5,7.77,34,192.0,2.5492876
1784071004665,0.0363573,1.0672941,0.094187364,5.67,6.7200003,9.38,34,192.0,2.5492876
1784071004665,0.04343355,1.0202004,0.037089325,3.57,4.34,10.57,34,192.0,2.5492876
1784071004710,-0.01708061,1.0018997,0.03220915,1.54,15.05,10.36,34,192.0,2.5492876
1784071004710,0.0588061,0.98774725,-0.013664488,-4.62,17.57,11.34,34,192.0,2.5492876
1784071004710,0.10882789,1.0036077,-0.018788671,-7.84,15.05,12.18,34,192.0,2.5492876
1784071004710,0.21423966,1.0172724,-0.051241834,-9.59,18.41,12.81,34,192.0,2.5492876
1784071004710,0.21789977,1.0404532,-0.054901965,-11.41,17.57,14.07,34,192.0,2.5492876
1784071004710,0.195939,1.0328889,-0.048801742,-7.4900002,18.27,15.190001,34,192.0,2.5492876
1784071004710,0.21521568,1.0465534,-0.037089325,-4.9,20.37,16.1,34,192.0,2.5492876
1784071004710,0.13298476,1.0121481,-0.02293682,-4.55,24.99,16.1,34,192.0,2.5492876
1784071004838,0.14225708,0.99433553,-0.104435734,-1.05,23.73,15.75,34,192.0,2.5492876
1784071004838,0.102727674,0.96773857,-0.1542135,-1.54,23.59,15.05,34,192.0,2.5492876
1784071004838,0.08369499,0.95944226,-0.16153377,-1.82,22.33,15.05,34,192.0,2.5492876
1784071004838,0.04148148,0.9465098,-0.19715904,-1.61,20.23,15.47,34,192.0,2.5492876
1784071004838,0.03782135,0.84719825,0.105167754,1.19,15.89,14.7,34,192.0,2.5492876
1784071004838,0.098091505,0.8203573,0.19642702,17.710001,15.61,14.14,34,192.0,2.5492876
1784071004838,0.0019520697,0.9135687,0.15104139,26.53,15.190001,18.97,34,192.0,2.5492876
1784071004838,-0.17178214,0.90307623,0.4587364,34.93,5.67,25.76,34,192.0,2.5492876
1784071004848,-0.19349891,0.8645229,0.8481742,33.95,-9.52,32.55,34,192.0,2.5492876
1784071004848,-0.2042353,0.88379955,0.8323137,25.83,-17.85,44.38,34,192.0,2.5492876
1784071004848,-0.2681656,0.8174292,1.3581525,48.58,-32.13,56.21,34,192.0,2.5492876
1784071004848,-0.8374379,1.1117036,1.3925577,82.81,-36.19,72.1,34,192.0,2.5492876
1784071004848,-2.0221002,2.5030415,0.8945359,149.31,-55.09,113.47,34,192.0,3.3398056
1784071004848,-1.430623,2.0626059,-0.009272331,65.03,-39.76,156.66,34,192.0,3.3398056
1784071004848,-1.0599738,0.950414,0.25401306,-34.86,-29.89,165.2,34,192.0,3.3398056
1784071004848,-0.34942046,1.0724183,0.364549,28.28,-18.13,140.42,35,198.0,3.3398056
1784071004973,0.6824924,2.1441045,0.46556863,-1.4,-0.49,94.99,35,198.0,3.3398056
1784071004973,1.036549,1.7236776,0.50436604,-4.48,10.85,33.39,35,198.0,3.3398056
1784071004973,0.95456207,1.4852811,0.19959912,-24.22,8.12,-14.49,35,198.0,3.3398056
1784071004973,0.45922443,1.3957298,0.26352942,-62.65,9.17,-49.35,35,198.0,3.3398056
1784071004973,0.0363573,1.3632767,0.17666231,-53.06,11.06,-76.16,35,198.0,3.3398056
1784071004973,-0.24718083,1.398414,0.1903268,-25.76,6.79,-88.69,35,198.0,3.3398056
1784071004973,-0.4311634,1.3864576,0.27890193,-19.25,2.52,-85.54,35,198.0,3.3398056
1784071004973,-0.54975164,1.2483486,0.29476252,-27.3,-0.7,-71.54,35,198.0,3.3398056
1784071005026,-0.6005055,1.1246362,0.18544662,-38.22,-6.3,-53.48,35,198.0,3.3398056
1784071005026,-0.52388674,0.8967321,0.23888454,-57.47,-17.01,-35.35,36,192.0,3.3398056
1784071005026,-0.45946842,0.95138997,0.16128977,-59.08,-30.17,-21.35,36,192.0,3.3398056
1784071005026,-0.37235728,0.9377255,0.23693246,-62.79,-42.21,-13.72,36,192.0,3.3398056
1784071005026,-0.38382572,0.8223094,0.2125316,-44.31,-49.49,-9.7300005,36,192.0,3.3398056
1784071005026,-0.32038346,0.75130284,0.20350327,-32.27,-54.46,-6.86,36,192.0,3.3398056
1784071005026,-0.24766885,0.78888017,0.17544226,-17.99,-58.31,-7.56,36,192.0,3.3398056
1784071005026,-0.19130284,0.77594775,0.19130284,-12.39,-59.85,-10.78,36,192.0,3.3398056
1784071005069,-0.14664924,0.7247059,0.15104139,-10.78,-58.52,-15.61,36,192.0,3.3398056
1784071005069,-0.0978475,0.67248803,0.11151198,-5.88,-56.07,-21.56,36,192.0,3.3398056
1784071005069,-0.051729847,0.65199125,0.117124185,1.6800001,-51.170002,-27.72,36,192.0,3.3398056
1784071005069,-0.020252723,0.61246186,0.121272326,13.440001,-46.13,-34.23,36,192.0,3.3398056
1784071005069,0.033185184,0.68737257,0.10760784,18.34,-40.53,-40.11,36,192.0,3.3398056
1784071005069,0.04343355,0.66443574,0.14884531,6.79,-35.420002,-43.47,36,192.0,3.3398056
1784071005069,0.05343791,0.6371067,0.0978475,-0.42000002,-32.97,-44.94,36,192.0,3.3398056
1784071005069,0.051973857,0.6073377,0.07369063,-7.4900002,-31.01,-44.66,36,192.0,3.3398056
1784071005204,0.038797386,0.5861089,0.043921567,-11.06,-29.12,-42.14,36,192.0,3.3398056
1784071005204,0.021472767,0.5712244,0.026596949,-13.2300005,-28.56,-37.31,36,192.0,3.3398056
1784071005204,0.01708061,0.6192941,-0.120540306,-11.62,-27.44,-31.01,36,192.0,3.3398056
1784071005204,-2.4400871E-4,0.587573,-0.08857516,-13.02,-26.11,-23.66,36,192.0,3.3398056
1784071005204,0.0,0.6088018,-0.16006972,-15.54,-25.62,-16.66,36,192.0,3.3398056
1784071005204,-0.026352942,0.6419869,-0.1878867,-17.36,-25.27,-11.2,36,192.0,3.3398056
1784071005204,-0.09369934,0.6698039,-0.18032244,-20.3,-26.18,-6.86,36,192.0,3.3398056
1784071005204,-0.11297604,0.69127667,-0.17153813,-21.56,-29.82,-2.59,36,192.0,3.3398056
1784071005213,-0.10199564,0.70982134,-0.11614815,-22.19,-35.14,1.6800001,36,192.0,3.3398056
1784071005213,-0.087355115,0.7593551,-0.06515033,-17.710001,-40.53,5.7400002,36,192.0,3.3398056
1784071005213,-0.15567756,0.81328106,-0.007808279,-8.61,-41.02,8.68,36,192.0,3.3398056
1784071005213,-0.2913464,0.88013947,0.15372549,4.83,-32.48,12.6,36,192.0,3.3398056
1784071005213,-0.27450982,1.006292,0.24791284,15.68,-15.4,17.5,36,192.0,3.3398056
1784071005213,-0.15006536,1.093403,0.16616993,15.68,0.91,22.68,36,192.0,3.3398056
1784071005213,-0.08174292,1.1412288,-0.013664488,15.96,4.48,26.81,36,192.0,3.3398056
1784071005213,0.008296296,1.3510762,-0.1373769,17.08,2.38,22.82,36,192.0,3.3398056
1784071005296,-0.011712418,1.3932898,0.07149455,13.51,3.5,10.08,36,192.0,3.3398056
1784071005296,0.081498906,1.2576208,0.28451416,29.75,9.52,-7.21,36,192.0,3.3398056
1784071005296,0.29549456,1.1634336,0.04953377,64.75,-12.18,-29.47,36,192.0,3.3398056
1784071005296,0.28451416,1.0238606,0.43457952,73.5,-22.82,-42.21,37,198.0,3.3398056
1784071005296,-0.10711983,1.343756,0.4338475,49.84,-4.41,-50.47,37,198.0,3.3398056
1784071005296,-0.3691852,1.3806013,0.5170545,34.44,13.440001,-56.56,37,198.0,3.3398056
1784071005296,-0.38431373,1.3920697,0.5934292,72.94,26.04,-59.64,37,198.0,3.3398056
1784071005296,0.16665795,1.5433551,0.4458039,77.98,31.99,-58.8,37,198.0,3.3398056
1784071005427,0.26523748,1.261525,0.5460915,43.54,26.460001,-60.41,37,198.0,3.3398056
1784071005427,-0.110779956,1.3627887,0.6134379,34.16,35.0,-63.07,37,198.0,3.3398056
1784071005427,-0.28134203,1.2146754,0.5963573,24.92,28.84,-65.73,37,198.0,3.3398056
1784071005427,-0.18666667,1.2149194,0.6500392,37.45,18.97,-66.57,37,198.0,3.3398056
1784071005427,-0.27011764,1.3220392,0.6597996,49.91,11.76,-66.43,37,198.0,3.3398056
1784071005427,-0.25694117,1.3593725,0.5858649,54.39,1.4,-63.07,37,198.0,3.3398056
1784071005427,-0.25108495,1.4303792,0.4787451,43.89,-9.66,-54.39,37,198.0,3.3398056
1784071005427,-0.22326796,1.40061,0.4284793,24.36,-18.69,-38.99,37,198.0,3.3398056
1784071005443,-0.16592592,1.3835294,0.32209152,0.35,-20.86,-19.74,37,198.0,3.3398056
1784071005443,-0.08711111,1.4047581,0.29305446,-8.05,-14.21,-0.98,37,198.0,3.3398056
1784071005443,-0.024400871,1.3908497,0.22717212,-9.31,-2.03,12.32,37,198.0,3.3398056
1784071005443,0.019520698,1.3552244,0.24254465,-16.17,7.77,19.67,37,198.0,3.3398056
1784071005443,0.097603485,1.374501,0.23571241,-24.36,14.9800005,23.94,37,198.0,3.3398056
1784071005443,0.09833551,1.2051591,0.26401743,-43.68,20.3,23.94,37,198.0,3.3398056
1784071005443,0.09125926,1.0733943,0.23278432,-46.13,24.15,25.55,38,198.0,3.3398056
1784071005443,0.10687582,1.0670501,0.17251417,-40.81,27.3,28.35,38,198.0,3.3398056
1784071005558,0.12371241,0.953342,0.19618301,-39.27,33.11,31.64,38,198.0,3.3398056
1784071005558,0.14176907,0.8711111,0.15616558,-34.65,39.83,33.670002,38,198.0,3.3398056
1784071005558,0.11370806,0.7852201,0.16885403,-26.32,46.55,34.58,38,198.0,3.3398056
1784071005558,0.119564265,0.65687144,0.1625098,-10.08,51.52,33.6,38,198.0,3.3398056
1784071005558,0.09467538,0.61661005,0.1515294,7.07,53.62,31.29,38,198.0,3.3398056
1784071005558,0.01708061,0.61002177,0.17910239,12.11,60.13,27.93,38,198.0,3.3398056
1784071005558,0.05929412,0.5931852,0.15518954,14.0,53.83,26.67,38,198.0,3.3398056
1784071005558,0.13566884,0.5924532,0.09199129,15.68,50.54,27.93,38,198.0,3.3398056
1784071005656,-0.0063442267,0.5812288,0.13078867,9.03,44.38,27.93,38,198.0,3.3398056
1784071005656,-0.03586928,0.5778126,0.114196084,4.27,40.25,28.07,38,198.0,3.3398056
1784071005656,-0.048801742,0.5453595,0.09687146,-1.26,37.52,28.42,38,198.0,3.3398056
1784071005656,-0.04001743,0.5582919,0.09052724,-10.15,35.49,27.02,38,198.0,3.3398056
1784071005656,-0.06612636,0.5502396,0.07759477,-12.95,32.9,25.97,38,198.0,3.3398056
1784071005656,-0.07710675,0.5229107,0.053925924,-5.39,30.8,23.52,38,198.0,3.3398056
1784071005656,-0.10980393,0.5707364,0.05514597,-5.32,28.28,20.86,38,198.0,3.3398056
1784071005656,-0.11346405,0.5722005,0.042701527,-6.51,24.710001,17.78,38,198.0,3.3398056
1784071005696,-0.1285926,0.5917211,0.039041396,-3.15,21.7,14.07,38,198.0,3.3398056
1784071005696,-0.114196084,0.6119738,0.050509803,-4.9,19.460001,10.5,38,198.0,3.3398056
1784071005696,-0.10199564,0.6395468,0.026840959,-7.7,17.22,6.79,38,198.0,3.3398056
1784071005696,-0.07173856,0.65199125,-0.016348584,-13.16,16.8,3.15,38,198.0,3.3398056
1784071005696,-0.027328975,0.65394336,0.060270153,-20.58,18.62,0.35,38,198.0,3.3398056
1784071005696,-0.03196514,0.70762527,0.03562527,-26.880001,24.85,-1.54,38,198.0,3.3398056
1784071005696,-0.0475817,0.7444706,-0.03196514,-30.87,36.19,-3.5,38,198.0,3.3398056
1784071005696,0.04514161,0.70835733,-0.023180827,-37.8,36.68,-5.18,38,198.0,3.3398056
1784071005744,0.058562092,0.72372985,-0.04928976,-43.12,38.57,-6.44,38,198.0,3.3398056
1784071005744,0.055877995,0.75301087,-0.07613072,-42.35,41.58,-7.7,38,198.0,3.3398056
1784071005744,0.042213507,0.8240174,-0.00756427,-37.87,41.37,-8.68,38,198.0,3.3398056
1784071005744,0.12908061,0.89746404,0.2606013,-27.44,35.35,-10.5,38,198.0,3.3398056
1784071005744,0.17324619,1.0465534,0.47313288,-6.02,26.39,-14.21,38,198.0,3.3398056
1784071005744,0.05685403,1.2415164,0.5104662,24.710001,14.14,-17.22,38,198.0,3.3398056
1784071005744,-0.17056209,1.3186231,0.24596079,72.73,2.66,-16.59,38,198.0,3.3398056
1784071005744,-0.4372636,1.4142745,-0.11273203,93.87,-7.84,-11.34,38,198.0,3.3398056
1784071005834,-0.60660565,1.3928018,-0.29842266,82.32,-13.440001,-3.57,38,198.0,3.3398056
1784071005834,-0.5990414,1.2973943,-0.24181265,38.57,-9.31,7.91,38,198.0,3.3398056
1784071005834,-0.5136384,1.1797822,-0.1820305,-11.4800005,1.4,18.48,38,198.0,3.3398056
1784071005834,-0.2579172,1.0943791,0.16568191,-36.47,5.04,25.83,39,198.0,3.3398056
1784071005834,0.12688452,1.2439564,0.36210895,-10.43,10.36,32.2,39,198.0,3.3398056
1784071005834,0.34868845,1.4796689,0.33014378,20.72,20.23,35.35,39,198.0,3.3398056
1784071005834,0.4250632,1.4772288,0.50021785,22.33,20.86,36.33,39,198.0,3.3398056
1784071005834,0.2857342,1.4791808,0.69298476,33.25,10.43,35.91,39,198.0,3.3398056
1784071005879,0.0073202616,1.5316427,0.9611503,69.93,-4.76,35.7,39,198.0,3.3398056
1784071005879,-0.4109107,1.738806,0.81376904,106.26,-14.07,42.21,39,198.0,3.3398056
1784071005879,-0.73934644,1.7048889,0.1371329,78.61,-20.65,53.55,39,198.0,3.3398056
1784071005879,-0.6097778,1.204671,0.25376904,-18.55,-25.13,62.72,39,198.0,3.3398056
1784071005879,-0.30574292,1.0036077,0.2659695,-44.1,-14.21,67.97,40,204.0,3.3398056
1784071005879,-0.0053681917,0.99287146,0.3835817,-21.56,2.17,67.62,40,204.0,3.3398056
1784071005879,0.2830501,0.980427,0.56927234,-0.49,10.92,60.69,40,204.0,3.3398056
1784071005879,0.33770806,0.9892113,0.5624401,1.33,17.01,51.8,40,204.0,3.3398056
1784071006009,0.2630414,0.8818475,0.5397473,-11.69,22.19,44.24,40,204.0,3.3398056
1784071006009,0.1595817,0.74666667,0.5104662,-18.76,25.06,37.03,40,204.0,3.3398056
1784071006009,0.041237473,0.7515468,0.4738649,-16.73,25.34,30.8,40,204.0,3.3398056
1784071006009,-0.02464488,0.7630153,0.46678868,-6.44,24.08,22.47,40,204.0,3.3398056
1784071006009,-0.110779956,0.9443137,0.43262747,2.73,19.81,14.9800005,40,204.0,3.3398056
1784071006009,-0.18593463,1.3896296,0.38528976,27.23,10.29,8.89,40,204.0,3.3398056
1784071006009,-0.21057951,1.625586,0.40212634,19.88,3.71,5.39,40,204.0,3.3398056
1784071006009,-0.21887583,1.4137865,0.20325926,7.84,-3.64,2.38,40,204.0,3.3398056
1784071006060,-0.2630414,1.1714859,0.2462048,-25.2,-12.88,-3.3600001,40,204.0,3.3398056
1784071006060,-0.2876863,1.0502135,0.24937691,-45.57,-18.48,-10.22,41,204.0,3.3398056
1784071006060,-0.29525056,0.9411416,0.2549891,-46.55,-19.67,-16.17,41,204.0,3.3398056
1784071006060,-0.29549456,0.86696297,0.21228758,-35.98,-19.25,-20.65,41,204.0,3.3398056
1784071006060,-0.27084967,0.82108927,0.20057516,-26.32,-20.65,-23.8,41,204.0,3.3398056
1784071006060,-0.224488,0.7639913,0.20106317,-19.460001,-22.47,-25.2,41,204.0,3.3398056
1784071006060,-0.18691067,0.75471896,0.17983443,-12.53,-23.94,-25.41,41,204.0,3.3398056
1784071006060,-0.124688454,0.7622832,0.167878,-10.92,-25.41,-23.87,41,204.0,3.3398056
1784071006105,-0.08467103,0.72861004,0.1649499,-9.52,-25.97,-21.63,41,204.0,3.3398056
1784071006105,-0.07320262,0.6868845,0.14908932,-7.63,-25.55,-19.39,41,204.0,3.3398056
1784071006105,-0.05661002,0.6551634,0.13371678,-12.46,-25.69,-16.45,41,204.0,3.3398056
1784071006105,-0.032941177,0.6207582,0.13396078,-11.4800005,-26.39,-12.74,41,204.0,3.3398056
1784071006105,-0.017324617,0.5992854,0.13688889,-7.7,-25.76,-8.54,41,204.0,3.3398056
1784071006105,0.021716775,0.6249063,0.13444881,-3.5,-24.64,-4.69,41,204.0,3.3398056
1784071006105,0.05465795,0.58074075,0.13640088,3.5,-23.24,-2.1,41,204.0,3.3398056
1784071006105,0.05294989,0.6412549,0.12151635,8.19,-20.93,0.21000001,41,204.0,3.3398056
1784071006194,0.044897605,0.642719,0.11444009,9.59,-18.62,2.31,41,204.0,3.3398056
1784071006194,0.026352942,0.66150767,0.10150763,10.85,-17.57,3.29,41,204.0,3.3398056
1784071006194,0.02098475,0.7308061,0.08906318,12.67,-13.65,3.85,41,204.0,3.3398056
1784071006194,0.026840959,0.756671,0.06978649,7.63,-9.94,4.83,41,204.0,3.3398056
1784071006194,0.039773423,0.755207,0.044409584,5.11,-6.79,5.88,41,204.0,3.3398056
1784071006194,0.051241834,0.7727756,-0.015372549,7.42,-3.64,7.28,41,204.0,3.3398056
1784071006194,0.014640523,0.8513464,-0.053681917,-5.6,-1.12,9.31,41,204.0,3.3398056
1784071006194,-0.012688453,0.784488,-0.09882353,-22.47,0.42000002,11.4800005,41,204.0,3.3398056
1784071006284,-0.041237473,0.7681394,-0.18325055,-26.53,2.45,12.46,41,204.0,3.3398056
1784071006284,-0.087355115,0.72861004,-0.17446622,-33.39,3.99,13.09,41,204.0,3.3398056
1784071006284,-0.1037037,0.70176905,-0.16690196,-38.71,3.92,13.440001,41,204.0,3.3398056
1784071006284,-0.100531586,0.67102396,-0.14884531,-38.36,1.6800001,11.97,41,204.0,3.3398056
1784071006284,-0.10248367,0.69298476,-0.073446624,-34.37,-0.7,10.5,41,204.0,3.3398056
1784071006284,-0.16080175,0.7403225,0.07661873,-10.78,5.25,5.53,41,204.0,3.3398056
1784071006284,-0.21277559,0.8437821,0.2496209,16.87,12.04,0.7,41,204.0,3.3398056
1784071006284,-0.20862745,0.7581351,0.24718083,16.73,18.13,-1.89,41,204.0,3.3398056
1784071006329,-0.17788234,0.79742044,0.40993467,8.89,25.34,-3.64,41,204.0,3.3398056
1784071006329,-0.14103703,0.9313812,0.3281917,21.56,34.79,-4.97,41,204.0,3.3398056
1784071006329,-0.04684967,0.99604356,0.084427014,38.85,36.4,-5.46,41,204.0,3.3398056
1784071006329,0.119564265,0.99994767,-0.061734203,34.37,26.95,-9.17,41,204.0,3.3398056
1784071006329,0.16738997,0.95114595,0.029769063,17.43,15.89,-15.75,41,204.0,3.3398056
1784071006329,-0.03172113,0.92723316,0.033673204,11.83,5.18,-22.12,41,204.0,3.3398056
1784071006329,-0.2942745,0.8437821,0.102727674,25.41,-9.8,-28.91,41,204.0,3.3398056
1784071006329,-0.5182745,0.7737516,0.25864923,54.18,-17.64,-34.58,41,204.0,3.3398056
1784071006418,-0.4587364,0.9465098,0.23254031,50.89,-23.03,-42.07,41,204.0,3.3398056
1784071006418,-0.45434424,0.8877037,0.35283658,34.79,-19.18,-45.78,41,204.0,3.3398056
1784071006418,-0.4087146,0.8923399,0.54243135,32.76,-9.45,-47.53,41,204.0,3.3398056
1784071006418,-0.21448365,1.0006797,0.9118606,58.73,12.11,-51.94,41,204.0,3.3398056
1784071006418,0.0644183,1.3174031,0.5848889,83.02,31.08,-60.48,41,204.0,3.3398056
1784071006418,0.5841569,1.763695,0.5917211,88.62,46.48,-79.24,41,204.0,3.3398056
1784071006418,0.503634,1.9232767,0.5297429,96.81,51.1,-103.46,41,204.0,3.3398056
1784071006418,0.21301961,1.8105447,0.6658998,63.0,38.43,-117.18,41,204.0,3.3398056
1784071006470,0.09077124,1.7663791,0.6768802,26.95,16.03,-118.65,41,204.0,3.3398056
1784071006470,-0.17544226,1.8634945,0.58781695,23.52,-3.5,-105.07,41,204.0,3.3398056
1784071006470,-0.46752068,1.7083051,0.55048364,32.41,-20.09,-79.52,41,204.0,3.3398056
1784071006470,-0.59782135,1.4640523,0.44677997,13.86,-32.76,-47.95,41,204.0,3.3398056
1784071006470,-0.29232246,1.3271633,0.2186318,-11.41,-43.75,-14.7,41,204.0,3.3398056
1784071006470,-0.21936384,1.1836863,0.18715468,-26.04,-30.66,8.75,41,204.0,3.3398056
1784071006470,-0.02098475,1.3337517,0.14079303,-12.81,-11.62,24.29,41,204.0,3.3398056
1784071006470,0.050509803,1.4467278,0.22619607,-14.63,3.85,35.420002,41,204.0,3.3398056
1784071006731,0.09882353,1.3208191,0.3340479,-17.78,14.0,38.920002,41,204.0,3.3398056
1784071006731,0.18178649,1.3586406,0.3028148,-13.37,20.65,35.49,41,204.0,3.3398056
1784071006731,0.21838781,1.28739,0.252305,-17.22,22.75,28.91,41,204.0,3.3398056
1784071006731,0.21228758,1.1566013,0.22522004,-19.6,24.57,21.63,42,192.0,3.3398056
1784071006731,0.17788234,1.0829107,0.19935511,-17.29,26.95,13.93,42,192.0,3.3398056
1784071006731,0.14762528,1.06461,0.22668411,-16.38,30.03,8.12,42,192.0,3.3398056
