timestamp_ms,accX_g,accY_g,accZ_g,gyrX,gyrY,gyrZ,step_count,cadence_spm,peak_impact_g
1784070792717,0.14860131,0.77594775,0.4033464,-19.88,5.7400002,-26.74,0,0.0,0.8870544
1784070792717,0.30720696,0.9548061,0.20252723,-8.26,2.73,-24.5,0,0.0,1.0232537
1784070792717,0.20862745,0.8842876,0.3535686,-23.94,18.69,-21.14,0,0.0,1.0232537
1784070792717,0.24596079,1.0377691,0.19252288,-6.16,6.7200003,-16.52,0,0.0,1.0837556
1784070792717,0.18373856,0.99262744,0.08271895,2.52,4.13,-14.77,0,0.0,1.0837556
1784070792717,0.11273203,0.8618388,0.068810456,-5.67,11.41,-17.57,0,0.0,1.0837556
1784070792717,0.18129848,0.7869281,0.8152331,-14.9800005,0.91,-23.94,0,0.0,1.1474886
1784070792717,0.21521568,0.8332898,1.3491242,-16.1,-17.15,-26.6,0,0.0,1.600258
1784070792752,0.08247495,1.1378126,1.0514336,10.5,-26.67,-21.98,0,0.0,1.600258
1784070792752,-0.5661002,1.6743878,0.47240084,84.42,-28.77,-9.17,0,0.0,1.8295373
1784070792752,-1.4911373,1.5060217,-0.07759477,119.63,-38.57,3.57,0,0.0,2.1207576
1784070792752,-0.96651846,1.1790501,-0.042701527,-0.7,-50.89,10.22,0,0.0,2.1207576
1784070792752,-0.18276253,1.2071111,0.44995204,-61.88,-56.14,17.15,0,0.0,2.1207576
1784070792752,0.06856645,1.3091067,0.5753726,-21.84,-60.760002,18.83,0,0.0,2.1207576
1784070792752,-0.020496732,1.202963,0.23717648,1.96,-61.18,14.56,0,0.0,2.1207576
1784070792752,0.13420479,1.1085316,0.117856205,6.86,-57.54,5.04,1,0.0,2.1207576
1784070792887,0.14933333,1.0467974,0.4062745,2.45,-65.45,-5.67,1,0.0,2.1207576
1784070792887,0.04660566,0.97091067,0.32770368,6.09,-66.01,-16.66,1,0.0,2.1207576
1784070792887,-0.02293682,0.9108845,0.36747712,5.88,-69.44,-27.16,1,0.0,2.1207576
1784070792887,-0.13835293,0.9548061,0.4562963,10.08,-72.45,-32.48,1,0.0,2.1207576
1784070792887,-0.22204792,0.9672506,0.42115903,9.94,-72.31,-32.48,1,0.0,2.1207576
1784070792887,-0.2603573,1.0043398,0.41652286,5.46,-71.12,-28.35,1,0.0,2.1207576
1784070792887,-0.28671023,0.9875033,0.34527233,4.48,-69.65,-22.33,1,0.0,2.1207576
1784070792887,-0.31159914,0.9499259,0.31013507,2.66,-68.46,-16.24,1,0.0,2.1207576
1784070792903,-0.31965142,0.9128366,0.31013507,2.45,-68.6,-10.36,1,0.0,2.1207576
1784070792903,-0.3028148,0.8906318,0.30159476,4.97,-66.99,-7.28,1,0.0,2.1207576
1784070792903,-0.27914596,0.8750153,0.280366,9.87,-67.2,-6.44,1,0.0,2.1207576
1784070792903,-0.23180829,0.8759913,0.25938126,11.83,-68.88,-7.07,1,0.0,2.1207576
1784070792903,-0.15714161,0.87184316,0.19715904,8.82,-77.98,-9.59,1,0.0,2.1207576
1784070792903,-0.19203486,0.8720872,0.22863616,6.09,-75.46,-13.37,1,0.0,2.1207576
1784070792903,-0.10492375,0.86793894,0.20399128,3.64,-77.98,-17.01,1,0.0,2.1207576
1784070792903,-0.07930283,0.83426577,0.21985185,4.69,-80.08,-20.72,1,0.0,2.1207576
1784070792976,-0.1793464,0.8542745,0.25572112,6.65,-80.01,-24.64,1,0.0,2.1207576
1784070792976,-0.0951634,0.8452462,0.26474947,8.75,-74.69,-28.210001,1,0.0,2.1207576
1784070792976,-0.048801742,0.8481742,0.27182573,11.41,-71.54,-31.08,1,0.0,2.1207576
1784070792976,-0.06563834,0.87257516,0.27328977,13.86,-67.41,-32.83,1,0.0,2.1207576
1784070792976,0.064906314,0.869403,0.23034422,16.87,-72.24,-33.6,1,0.0,2.1207576
1784070792976,-0.044897605,0.8984401,0.29256645,17.22,-61.670002,-33.74,1,0.0,2.1207576
1784070792976,-0.012200436,0.9162527,0.307939,18.9,-53.62,-33.53,1,0.0,2.1207576
1784070792976,0.009760349,0.9201569,0.31306317,20.72,-49.14,-33.04,1,0.0,2.1207576
1784070793068,0.054901965,0.92674506,0.3030588,21.0,-43.82,-31.5,1,0.0,2.1207576
1784070793068,0.068810456,0.9294292,0.30476686,21.77,-39.27,-29.33,1,0.0,2.1207576
1784070793068,0.07954685,0.9406536,0.3113551,20.93,-35.49,-27.02,1,0.0,2.1207576
1784070793068,0.09321132,0.93357736,0.31477123,19.81,-31.92,-24.29,1,0.0,2.1207576
1784070793068,0.097603485,0.92113286,0.31257516,19.11,-28.98,-21.42,1,0.0,2.1207576
1784070793068,0.09321132,0.923573,0.30037472,19.53,-26.32,-18.69,1,0.0,2.1207576
1784070793068,0.09174728,0.9318693,0.28500217,19.460001,-24.710001,-16.38,1,0.0,2.1207576
1784070793068,0.08369499,0.93430936,0.2881743,18.48,-23.8,-14.63,1,0.0,2.1207576
1784070793116,0.06905446,0.94358176,0.29159042,16.8,-22.89,-13.16,1,0.0,2.1207576
1784070793116,0.043189544,0.9548061,0.28939435,15.33,-21.84,-11.9,1,0.0,2.1207576
1784070793116,0.008540305,0.9760349,0.28939435,13.58,-21.07,-11.13,1,0.0,2.1207576
1784070793116,-0.0046361657,0.9672506,0.279878,11.76,-20.58,-11.2,1,0.0,2.1207576
1784070793116,-0.030745098,0.9865272,0.2832941,10.29,-18.69,-11.27,1,0.0,2.1207576
1784070793116,-0.04611765,0.9853072,0.28183007,11.69,-16.87,-11.34,1,0.0,2.1207576
1784070793116,-0.07759477,0.9945795,0.2937865,11.27,-20.58,-10.5,1,0.0,2.1207576
1784070793116,-0.09199129,0.9867712,0.26718953,11.4800005,-15.12,-10.29,1,0.0,2.1207576
1784070793208,-0.10004357,1.0048279,0.27231374,11.83,-11.9,-9.52,1,0.0,2.1207576
1784070793208,-0.10882789,1.0158083,0.27255774,10.08,-10.36,-8.68,1,0.0,2.1207576
1784070793208,-0.119564265,1.0172724,0.26401743,8.54,-9.03,-7.35,1,0.0,2.1207576
1784070793208,-0.11346405,1.036061,0.25889325,11.69,-7.07,-6.65,1,0.0,2.1207576
1784070793208,-0.12151635,1.0389892,0.28134203,10.22,-6.44,-5.95,1,0.0,2.1207576
1784070793208,-0.11566014,1.037037,0.2686536,5.53,-5.95,-4.83,1,0.0,2.1207576
1784070793208,-0.11566014,1.0238606,0.26523748,2.66,-5.25,-4.13,1,0.0,2.1207576
1784070793208,-0.12078431,1.0018997,0.2579172,0.07,-5.04,-3.5,1,0.0,2.1207576
1784070793295,-0.10345969,0.9823791,0.2681656,-0.42000002,-5.6,-3.43,1,0.0,2.1207576
1784070793295,-0.10419172,0.9662745,0.2659695,-0.42000002,-5.39,-3.57,1,0.0,2.1207576
1784070793295,-0.079058826,0.96041834,0.23180829,0.21000001,-4.06,-3.92,1,0.0,2.1207576
1784070793295,-0.07979085,0.93406534,0.23205228,-0.56,-3.99,-4.62,1,0.0,2.1207576
1784070793295,-0.09052724,0.93162525,0.22741611,-2.03,-4.27,-4.9,1,0.0,2.1207576
1784070793295,-0.102727674,0.9213769,0.22668411,-3.22,-4.55,-4.97,1,0.0,2.1207576
1784070793295,-0.027084969,0.9367494,0.15543355,-1.54,-14.91,-4.48,1,0.0,2.1207576
1784070793295,-0.11736819,0.896244,0.19374292,-4.13,-7.4900002,-4.9,1,0.0,2.1207576
1784070793344,-0.13176471,0.88941175,0.20545535,-5.6,-3.85,-4.76,1,0.0,2.1207576
1784070793344,-0.13322876,0.8857516,0.18007843,-6.37,-4.06,-4.41,1,0.0,2.1207576
1784070793344,-0.13371678,0.8662309,0.16714597,-8.33,-4.2,-3.64,1,0.0,2.1207576
1784070793344,-0.13518083,0.86525494,0.16983007,-10.43,-4.55,-2.52,1,0.0,2.1207576
1784070793344,-0.13078867,0.8513464,0.14957735,-12.81,-5.04,-1.12,1,0.0,2.1207576
1784070793344,-0.13176471,0.8415861,0.13225272,-14.14,-5.18,0.35,1,0.0,2.1207576
1784070793344,-0.12566449,0.83255774,0.13542484,-14.56,-4.62,2.1,1,0.0,2.1207576
1784070793344,-0.11858824,0.8284096,0.12493246,-14.63,-3.71,3.85,1,0.0,2.1207576
1784070793431,-0.10614379,0.8242614,0.120540306,-14.35,-2.8700001,5.39,1,0.0,2.1207576
1784070793431,-0.08906318,0.81328106,0.10980393,-13.86,-2.17,6.51,1,0.0,2.1207576
1784070793431,-0.08613508,0.81230503,0.11736819,-12.39,-1.54,7.42,1,0.0,2.1207576
1784070793431,-0.08515904,0.810353,0.10248367,-9.17,-0.91,7.98,1,0.0,2.1207576
1784070793431,-0.09443137,0.80254465,0.09028322,-5.25,-0.28,7.84,1,0.0,2.1207576
1784070793431,-0.10541177,0.79937255,0.08345098,0.84000003,0.28,7.28,1,0.0,2.1207576
1784070793431,-0.11102396,0.8054728,0.083206974,4.97,2.03,6.37,1,0.0,2.1207576
1784070793431,-0.12273638,0.7996166,0.056122,9.59,3.71,5.6,1,0.0,2.1207576
1784070793478,-0.1232244,0.8042527,0.059050106,15.190001,5.11,4.9,1,0.0,2.1207576
1784070793478,-0.14128104,0.83499783,0.03660131,22.19,6.58,3.71,1,0.0,2.1207576
1784070793478,-0.15299346,0.8840436,0.02098475,27.93,7.84,2.38,1,0.0,2.1207576
1784070793478,-0.1651939,0.92674506,-0.0063442267,31.710001,8.54,0.91,1,0.0,2.1207576
1784070793478,-0.17544226,0.98067105,-0.024156863,34.23,9.38,-0.7,1,0.0,2.1207576
1784070793478,-0.18325055,1.0316688,-0.039529413,34.93,9.66,-2.03,1,0.0,2.1207576
1784070793478,-0.18422659,1.0487494,-0.05661002,34.02,9.59,-2.66,1,0.0,2.1207576
1784070793478,-0.19618301,1.0741264,-0.09345534,33.81,8.33,-2.52,1,0.0,2.1207576
1784070793566,-0.23132028,1.0982832,-0.102727674,32.06,7.98,-1.61,1,0.0,2.1207576
1784070793566,-0.19276689,1.0958432,-0.107363835,26.67,7.35,0.7,1,0.0,2.1207576
1784070793566,-0.23034422,1.1258563,-0.1261525,20.93,7.4900002,1.47,1,0.0,2.1207576
1784070793566,-0.20813943,1.1422048,-0.16299781,15.96,6.7200003,1.26,1,0.0,2.1207576
1784070793566,-0.124200426,1.1426928,-0.1930109,13.79,4.41,0.14,1,0.0,2.1207576
1784070793566,-0.030013073,1.1236601,-0.28719825,18.13,-2.31,-3.78,1,0.0,2.1207576
1784070793566,0.05685403,1.0777864,-0.3311198,18.55,-12.81,-7.07,1,0.0,2.1207576
1784070793566,0.031477123,1.00922,-0.16665795,9.52,-22.4,-6.16,1,0.0,2.1207576
1784070793657,-0.23595643,1.0121481,1.0277647,13.37,-8.54,-1.6800001,1,0.0,2.1207576
1784070793657,-0.2911024,1.4445316,1.5362788,59.010002,39.76,-2.1,1,0.0,2.1287472
1784070793657,-0.13981698,1.9818388,0.8503704,114.87,89.46,-16.38,1,0.0,2.1611025
1784070793657,0.55682784,1.9135163,0.34405228,95.76,96.88,-27.37,1,0.0,2.1611025
1784070793657,1.4284271,1.201011,0.060026146,29.54,72.52,-26.67,1,0.0,2.1611025
1784070793657,0.7386144,1.091207,0.17568627,-32.97,52.08,-23.38,1,0.0,2.1611025
1784070793657,0.019764706,1.0799825,0.30061874,-32.34,21.210001,-29.05,2,12.0,2.1611025
1784070793657,-0.1737342,1.3200872,0.53169495,13.79,2.52,-32.76,2,12.0,2.1611025
1784070793743,-0.39090198,1.427451,0.7793639,54.6,10.15,-29.05,2,12.0,2.1611025
1784070793743,-0.65809155,1.4320872,0.47118083,58.94,12.53,-24.99,2,12.0,2.1611025
1784070793743,-0.6053856,1.2256558,0.40676254,28.14,1.6800001,-14.07,2,12.0,2.1611025
1784070793743,-0.4121307,0.9457778,0.36869717,-5.88,-11.41,1.05,3,18.0,2.1611025
1784070793743,-0.39139,0.9082004,0.33136383,-8.96,-7.21,11.06,3,18.0,2.1611025
1784070793743,-0.17007408,0.9753029,0.28158605,3.71,0.21000001,17.43,3,18.0,2.1611025
1784070793743,0.008296296,1.0799825,0.29500654,-2.8700001,5.04,19.95,3,18.0,2.1611025
1784070793743,0.10541177,1.1400087,0.26450545,-19.67,9.7300005,18.2,3,18.0,2.1611025
1784070793829,0.17007408,1.2000349,0.26767758,-20.51,15.82,15.47,3,18.0,2.1611025
1784070793829,0.23790848,1.0858388,0.25450107,-19.88,21.7,12.46,4,24.0,2.1611025
1784070793829,0.24864487,1.035329,0.25596514,-22.05,27.72,9.24,4,24.0,2.1611025
1784070793829,0.27816993,0.9103965,0.2627974,-25.06,32.41,7.35,4,24.0,2.1611025
1784070793829,0.30427885,0.9155207,0.26499346,-25.62,37.03,7.35,4,24.0,2.1611025
1784070793829,0.29573858,0.8545185,0.29256645,-24.36,40.88,8.75,4,24.0,2.1611025
1784070793829,0.24571678,0.77570367,0.30769497,-31.36,49.35,11.34,4,24.0,2.1611025
1784070793829,0.25303704,0.7532549,0.2852462,-21.84,45.78,14.63,4,24.0,2.1611025
1784070793883,0.20521133,0.6900567,0.29012635,-13.86,44.59,19.6,4,24.0,2.1611025
1784070793883,0.15006536,0.644427,0.27816993,-1.54,45.29,24.710001,4,24.0,2.1611025
1784070793883,0.1232244,0.67004794,0.2552331,6.44,46.06,29.47,4,24.0,2.1611025
1784070793883,0.1202963,0.6634597,0.2713377,9.59,46.76,34.09,4,24.0,2.1611025
1784070793883,0.062222224,0.6851765,0.25889325,16.1,47.53,36.82,4,24.0,2.1611025
1784070793883,0.017568627,0.70738125,0.24693681,21.42,46.69,37.66,4,24.0,2.1611025
1784070793883,-0.010004357,0.7361743,0.25108495,24.99,45.15,36.96,4,24.0,2.1611025
1784070793883,-0.03611329,0.755207,0.23400435,29.89,43.61,34.58,4,24.0,2.1611025
1784070793925,-0.042945534,0.80986494,0.21765578,32.2,41.86,30.87,4,24.0,2.1611025
1784070793925,-0.052705884,0.86476684,0.19349891,31.99,39.48,26.880001,4,24.0,2.1611025
1784070793925,-0.051973857,0.87623525,0.18715468,30.24,36.26,22.75,4,24.0,2.1611025
1784070793925,-0.05563399,0.897952,0.1483573,29.61,32.62,18.97,4,24.0,2.1611025
1784070793925,-0.034649234,0.8945359,0.15030937,26.32,29.12,15.96,4,24.0,2.1611025
1784070793925,-0.04562963,0.90258825,0.13176471,17.99,25.13,12.18,4,24.0,2.1611025
1784070793925,-0.04343355,0.8798954,0.11736819,14.77,22.33,8.89,4,24.0,2.1611025
1784070793925,-0.029281046,0.8737952,0.11736819,14.21,19.460001,5.6,4,24.0,2.1611025
1784070794061,-0.04733769,0.8633029,0.09857952,10.85,16.59,2.8700001,4,24.0,2.1611025
1784070794061,-0.05661002,0.8493943,0.09028322,5.88,14.63,0.28,4,24.0,2.1611025
1784070794061,-0.058562092,0.8508584,0.07369063,1.47,13.51,-1.96,4,24.0,2.1611025
1784070794061,-0.064906314,0.85549456,0.042457517,-5.04,12.25,-3.57,4,24.0,2.1611025
1784070794061,-0.04684967,0.83182573,0.017812636,-13.58,11.13,-4.83,4,24.0,2.1611025
1784070794061,-0.039529413,0.8096209,-0.0053681917,-20.02,10.36,-6.65,4,24.0,2.1611025
1784070794061,-0.017812636,0.78278,-0.04026144,-26.25,10.08,-8.19,4,24.0,2.1611025
1784070794061,0.012200436,0.7674074,-0.04514161,-29.68,9.8,-9.8,4,24.0,2.1611025
1784070794073,0.017568627,0.73690635,-0.015372549,-29.19,11.69,-11.83,4,24.0,2.1611025
1784070794073,0.03416122,0.7359303,-0.011224401,-24.5,11.62,-13.58,4,24.0,2.1611025
1784070794073,0.04611765,0.74081045,-0.0021960784,-15.96,13.3,-15.82,4,24.0,2.1611025
1784070794073,0.07442266,0.76203924,-0.010492375,-2.24,15.82,-18.13,4,24.0,2.1611025
1784070794073,0.0868671,0.79668844,0.020008715,8.05,12.46,-20.16,4,24.0,2.1611025
1784070794073,0.09150327,0.87623525,0.00756427,17.85,7.77,-20.72,4,24.0,2.1611025
1784070794073,0.09296732,0.9557821,0.033673204,26.53,2.66,-20.09,4,24.0,2.1611025
1784070794073,0.051241834,1.0343529,0.043677557,35.21,-1.26,-18.76,4,24.0,2.1611025
1784070794152,-0.02830501,1.1426928,-0.024400871,44.1,-4.62,-16.52,4,24.0,2.1611025
1784070794152,-0.094187364,1.1863704,-0.07613072,45.85,-7.84,-14.07,4,24.0,2.1611025
1784070794152,-0.2074074,1.175146,-0.19179085,41.16,-7.07,-12.11,4,24.0,2.1611025
1784070794152,-0.42433116,1.1099956,-0.22473203,31.29,4.2,-9.8,4,24.0,2.1611025
1784070794152,-0.252061,1.148793,-0.16202179,22.26,6.02,-6.51,5,30.0,2.1611025
1784070794152,-0.1793464,1.2478606,0.07417865,14.35,-0.07,-5.7400002,5,30.0,2.1611025
1784070794152,0.021960784,1.3400959,0.3755294,20.3,-4.76,-5.39,5,30.0,2.1611025
1784070794152,0.13371678,1.6153376,0.4789891,46.48,-8.89,-1.96,5,30.0,2.1611025
1784070794243,0.19398694,1.6951286,0.34893245,70.0,-16.45,2.59,5,30.0,2.1611025
1784070794243,-0.14225708,1.6277821,0.17251417,34.51,-20.02,6.23,5,30.0,2.1611025
1784070794243,-0.41261876,1.7114772,0.4284793,44.170002,-30.66,13.79,5,30.0,2.1611025
1784070794243,-0.33746406,1.4745446,0.06295425,13.440001,-38.08,19.95,5,30.0,2.1611025
1784070794243,-0.16006972,1.1270763,-0.16616993,-43.26,-39.55,21.07,6,36.0,2.1611025
1784070794243,-0.15201743,1.1002352,-0.0048801745,-31.15,-31.85,19.6,6,36.0,2.1611025
1784070794243,0.031233115,1.1936907,0.2886623,-3.43,-21.63,20.86,6,36.0,2.1611025
1784070794243,0.32331154,1.1612375,0.44360784,19.460001,-9.94,19.6,6,36.0,2.1611025
1784070794330,0.32477558,1.0841308,0.42481914,27.16,-1.75,17.85,6,36.0,2.1611025
1784070794330,0.28256208,0.93089324,0.3779695,10.99,3.85,15.33,7,42.0,2.1611025
1784070794330,0.23839653,0.8015686,0.41823092,-3.78,4.27,10.5,7,42.0,2.1611025
1784070794330,0.13054466,0.78546405,0.4001743,-7.28,-0.14,4.69,7,42.0,2.1611025
1784070794330,0.010980392,0.84134203,0.35527667,-7.77,-7.98,0.63,7,42.0,2.1611025
1784070794330,-0.06466231,1.0250806,0.35430065,-3.3600001,-16.45,-0.98,7,42.0,2.1611025
1784070794330,-0.1459172,1.1436688,0.33697602,2.45,-24.85,-0.91,7,42.0,2.1611025
1784070794330,-0.16128977,1.2437124,0.30891502,2.1,-32.27,-0.07,7,42.0,2.1611025
1784070794377,-0.16861002,1.1597735,0.29500654,-2.66,-38.64,0.35,7,42.0,2.1611025
1784070794377,-0.18593463,1.1346406,0.2681656,-4.48,-42.7,-1.54,8,48.0,2.1611025
1784070794377,-0.16421786,1.0873029,0.2774379,-17.92,-43.54,-5.32,8,48.0,2.1611025
1784070794377,-0.13127668,0.9896993,0.31159914,-26.460001,-41.02,-8.75,8,48.0,2.1611025
1784070794377,-0.14762528,0.92332894,0.27963397,-27.16,-38.64,-11.4800005,8,48.0,2.1611025
1784070794377,-0.15201743,0.8781873,0.251817,-19.88,-35.77,-13.02,8,48.0,2.1611025
1784070794377,-0.12932462,0.82718956,0.26133332,-19.88,-33.25,-14.07,8,48.0,2.1611025
1784070794377,-0.10955991,0.80230063,0.23376034,-20.86,-30.59,-14.56,8,48.0,2.1611025
1784070794466,-0.09052724,0.7461786,0.22058389,-22.61,-29.26,-14.14,8,48.0,2.1611025
1784070794466,-0.087843135,0.7037211,0.19935511,-26.32,-28.91,-13.93,8,48.0,2.1611025
1784070794466,-0.07198257,0.67102396,0.19447495,-25.97,-29.05,-13.93,8,48.0,2.1611025
1784070794466,-0.068810456,0.6502832,0.17641829,-19.74,-29.05,-13.86,8,48.0,2.1611025
1784070794466,-0.06832244,0.67175597,0.16299781,-16.31,-28.98,-14.28,8,48.0,2.1611025
1784070794466,-0.06344226,0.66272765,0.16372985,-12.25,-28.210001,-14.84,8,48.0,2.1611025
1784070794466,-0.049777776,0.6802963,0.15079738,-5.39,-26.67,-15.82,8,48.0,2.1611025
1784070794466,-0.021716775,0.6942048,0.14469717,2.73,-24.92,-17.01,8,48.0,2.1611025
1784070794551,0.012932462,0.72104573,0.13493682,9.94,-22.26,-18.2,8,48.0,2.1611025
1784070794551,0.038309366,0.7610632,0.11029194,14.07,-19.11,-18.62,8,48.0,2.1611025
1784070794551,0.05148584,0.80522877,0.09296732,17.22,-15.26,-18.27,8,48.0,2.1611025
1784070794551,0.04172549,0.810353,0.07783878,20.23,-10.57,-16.31,8,48.0,2.1611025
1784070794551,0.03806536,0.8379259,0.057586055,21.98,-5.6,-13.16,8,48.0,2.1611025
1784070794551,0.02098475,0.85866666,0.029769063,20.65,-0.42000002,-8.82,8,48.0,2.1611025
1784070794551,0.01512854,0.89770806,0.003416122,15.54,4.76,-3.5,8,48.0,2.1611025
1784070794551,0.028793028,0.8916078,-0.0419695,7.98,9.1,2.38,8,48.0,2.1611025
1784070794601,0.03562527,0.8733072,-0.074666664,-1.05,12.39,8.4,8,48.0,2.1611025
1784070794601,0.037577342,0.84451413,-0.09955555,-8.4,14.9800005,13.51,8,48.0,2.1611025
1784070794601,0.031477123,0.8064488,-0.102239646,-11.06,17.15,17.01,8,48.0,2.1611025
1784070794601,0.010980392,0.7613072,-0.11810021,-8.54,17.36,18.41,8,48.0,2.1611025
1784070794601,-0.0107363835,0.74373853,-0.03562527,-3.64,19.6,18.69,8,48.0,2.1611025
1784070794601,0.005856209,0.7576471,-0.014152505,3.78,21.49,18.13,8,48.0,2.1611025
1784070794601,-0.0053681917,0.76984745,-0.001708061,12.18,21.7,16.17,8,48.0,2.1611025
1784070794601,-0.05734205,0.82108927,-0.006100218,20.93,21.0,13.72,8,48.0,2.1611025
1784070794691,-0.15348148,0.8879477,0.02074074,27.23,24.36,11.13,8,48.0,2.1611025
1784070794691,-0.30623093,0.9574902,0.037577342,34.02,30.03,8.05,8,48.0,2.1611025
1784070794691,-0.45946842,1.0736383,0.07417865,41.58,31.99,5.53,8,48.0,2.1611025
1784070794691,-0.35161656,1.1983268,0.06051416,45.99,36.68,0.35,8,48.0,2.1611025
1784070794691,-0.26108932,1.3269194,0.0029281045,45.43,36.26,-6.86,8,48.0,2.1611025
1784070794691,-0.1093159,1.2798257,-0.018544663,35.7,30.1,-12.67,8,48.0,2.1611025
1784070794691,0.013664488,1.1617255,-0.05929412,26.460001,19.32,-14.91,9,54.0,2.1611025
1784070794691,0.004148148,1.0589979,-0.05294989,22.61,5.18,-13.16,9,54.0,2.1611025
1784070794780,-0.10345969,1.0831547,0.11322004,19.67,-5.81,-11.83,9,54.0,2.1611025
1784070794780,-0.26694554,1.1592854,0.10541177,25.34,-11.97,-14.21,9,54.0,2.1611025
1784070794780,-0.2908584,1.1814902,0.06832244,28.42,-16.8,-16.17,9,54.0,2.1611025
1784070794780,-0.23473638,1.2759216,0.2881743,21.7,-19.32,-15.96,9,54.0,2.1611025
1784070794780,-0.18739869,1.4664923,0.5722005,19.460001,-8.96,-16.94,9,54.0,2.1611025
1784070794780,-0.016104575,1.7827276,0.59855336,40.53,11.76,-24.43,9,54.0,2.1611025
1784070794780,0.3779695,1.6426666,0.095895424,42.28,11.9,-29.4,9,54.0,2.1611025
1784070794780,0.09150327,1.458196,0.18300654,4.55,-0.07,-26.53,9,54.0,2.1611025
1784070794828,-0.09687146,1.3330196,0.4458039,-8.82,-12.67,-24.5,9,54.0,2.1611025
1784070794828,-0.21082354,1.2998345,0.5151024,1.12,-19.67,-27.51,9,54.0,2.1611025
1784070794828,-0.33941612,1.2210196,0.4926536,4.13,-27.51,-31.29,9,54.0,2.1611025
1784070794828,-0.27377778,1.1607496,0.5402353,-1.4,-36.96,-34.86,9,54.0,2.1611025
1784070794828,-0.19179085,1.1026754,0.4968017,-7.77,-42.91,-35.56,9,54.0,2.1611025
1784070794828,-0.15811765,0.9828671,0.43628758,-10.01,-47.95,-32.2,10,60.0,2.1611025
1784070794828,-0.044165578,0.91844887,0.39675817,3.5,-47.81,-29.47,10,60.0,2.1611025
1784070794828,-0.018056644,1.0416732,0.33526796,11.62,-45.64,-24.99,10,60.0,2.1611025
1784070794916,0.0070762527,1.1212201,0.2662135,16.73,-41.09,-19.460001,10,60.0,2.1611025
1784070794916,0.032697167,1.1524532,0.21375164,18.41,-35.7,-14.91,10,60.0,2.1611025
1784070794916,0.063686274,1.1583093,0.18569063,16.8,-30.66,-10.71,10,60.0,2.1611025
1784070794916,0.12102832,1.147329,0.19130284,18.62,-26.74,-6.58,10,60.0,2.1611025
1784070794916,0.1454292,1.1658736,0.20472331,18.9,-23.1,-1.47,10,60.0,2.1611025
1784070794916,0.16958606,1.1707537,0.19740304,9.8,-21.28,3.43,10,60.0,2.1611025
1784070794916,0.1932549,1.1053594,0.21033551,-4.62,-21.56,7.21,10,60.0,2.1611025
1784070794916,0.19447495,1.0314249,0.24034858,-12.39,-21.98,8.12,10,60.0,2.1611025
1784070794960,0.19642702,0.95017,0.24010459,-13.51,-23.8,6.7200003,10,60.0,2.1611025
1784070794960,0.1651939,0.896244,0.20960349,-12.81,-26.11,5.11,10,60.0,2.1611025
1784070794960,0.11614815,0.8584227,0.16885403,-9.87,-27.37,3.99,10,60.0,2.1611025
1784070794960,0.03025708,0.74666667,0.23888454,-11.9,-22.47,3.08,10,60.0,2.1611025
1784070794960,0.042945534,0.7791198,0.12102832,-0.21000001,-25.27,3.64,10,60.0,2.1611025
1784070794960,0.024400871,0.76447934,0.11688017,5.04,-25.97,4.34,10,60.0,2.1611025
1784070794960,0.019520698,0.7107974,0.116636164,6.16,-25.06,4.41,10,60.0,2.1611025
1784070794960,0.0070762527,0.7071372,0.11102396,5.7400002,-24.29,4.9,10,60.0,2.1611025
1784070795052,0.001708061,0.68054026,0.076374725,9.1,-25.27,5.39,10,60.0,2.1611025
1784070795052,-0.0021960784,0.68810457,0.059050106,11.55,-26.880001,5.39,10,60.0,2.1611025
1784070795052,0.251817,0.7820479,-0.09125926,11.62,-27.86,5.11,10,60.0,2.1611025
1784070795052,0.025620917,0.6915207,-0.0065882355,17.64,-32.76,2.66,10,60.0,2.1611025
1784070795052,0.016104575,0.68786055,0.01146841,17.710001,-35.98,0.21000001,10,60.0,2.1611025
1784070795052,0.033429194,0.67712414,0.0014640522,19.74,-38.920002,-2.17,10,60.0,2.1611025
1784070795052,0.033673204,0.67810017,0.006100218,19.6,-41.16,-3.99,10,60.0,2.1611025
1784070795052,0.038553376,0.6932288,0.020008715,13.58,-42.91,-5.6,10,60.0,2.1611025
1784070795139,0.052461874,0.6863965,0.036845315,5.11,-43.54,-7.7,10,60.0,2.1611025
1784070795139,0.06417429,0.7173856,0.01512854,-1.33,-43.33,-10.71,10,60.0,2.1611025
1784070795139,0.059538126,0.71226144,-0.048313726,-8.75,-41.86,-13.86,10,60.0,2.1611025
1784070795139,0.11932026,0.6978649,0.031233115,-12.39,-41.02,-16.8,10,60.0,2.1611025
1784070795139,0.18520261,0.71323746,0.011956427,-12.81,-37.66,-18.9,10,60.0,2.1611025
1784070795139,0.22546406,0.7193377,0.032697167,-13.72,-31.64,-20.3,10,60.0,2.1611025
1784070795139,0.252793,0.73568624,0.05563399,-15.05,-21.98,-21.77,10,60.0,2.1611025
1784070795139,0.22082789,0.727634,-0.013420479,-11.76,-10.99,-23.24,10,60.0,2.1611025
1784070795226,0.15079738,0.75471896,-0.09296732,-6.16,-1.89,-24.57,10,60.0,2.1611025
1784070795226,0.15567756,0.83036166,-0.105167754,-0.77,3.78,-25.41,10,60.0,2.1611025
1784070795226,0.19813508,0.93796945,-0.10248367,4.27,2.94,-26.11,10,60.0,2.1611025
1784070795226,0.22570805,1.0438694,-0.04684967,7.91,-5.46,-26.53,10,60.0,2.1611025
1784070795226,0.12517647,1.1641656,0.02464488,12.6,-2.31,-26.880001,10,60.0,2.1611025
1784070795226,0.028061,1.2590849,-0.09272331,25.41,-12.25,-23.38,10,60.0,2.1611025
1784070795226,-0.13347277,1.3586406,-0.1456732,24.01,-16.52,-14.7,10,60.0,2.1611025
1784070795226,-0.15079738,1.3788933,-0.2691416,12.04,-12.81,-3.15,10,60.0,2.1611025
1784070795276,-0.24132463,1.2154074,-0.28719825,9.03,-11.76,5.46,10,60.0,2.1611025
1784070795276,-0.23571241,1.0797385,-0.19179085,24.99,-9.03,8.12,11,66.0,2.1611025
1784070795276,-0.11907625,1.0777864,0.4565403,24.57,-17.15,4.62,11,66.0,2.1611025
1784070795276,0.028061,1.3330196,0.79132026,17.85,-32.13,4.83,11,66.0,2.1611025
1784070795276,0.08613508,1.6985447,0.6336906,40.95,-56.35,13.51,11,66.0,2.1611025
1784070795276,0.16177778,1.8861873,0.38748583,75.18,-69.090004,26.39,11,66.0,2.1611025
1784070795276,-0.27182573,1.6128976,-0.14494118,82.25,-62.37,33.6,11,66.0,2.1611025
1784070795276,-0.7064052,0.99433553,-0.023180827,-0.21000001,-69.090004,33.25,11,66.0,2.1611025
1784070795364,-0.54901963,0.87965137,0.021228759,-50.33,-66.43,35.21,12,72.0,2.1611025
1784070795364,-0.21838781,1.0241046,0.3469804,-63.35,-67.2,44.94,12,72.0,2.1611025
1784070795364,0.15640959,0.9831111,0.44165578,-14.0,-51.87,48.37,12,72.0,2.1611025
1784070795364,0.14079303,1.007268,0.3667451,20.09,-47.74,45.85,12,72.0,2.1611025
1784070795364,0.25742918,1.0548496,0.40139434,26.81,-44.1,41.86,12,72.0,2.1611025
1784070795364,0.31428322,1.036305,0.41554683,21.7,-41.79,33.81,12,72.0,2.1611025
1784070795364,0.252061,0.99262744,0.3438083,7.91,-43.54,22.75,12,72.0,2.1611025
1784070795364,0.14079303,1.0263007,0.34527233,6.23,-46.9,10.71,12,72.0,2.1611025
1784070795452,0.0419695,1.1946666,0.29744664,38.64,-51.31,-2.59,12,72.0,2.1611025
1784070795452,-0.07173856,1.3508322,0.20545535,70.840004,-57.61,-12.88,12,72.0,2.1611025
1784070795452,-0.16226579,1.5040697,0.07759477,61.39,-65.87,-19.25,12,72.0,2.1611025
1784070795452,-0.18666667,1.344488,0.10321569,19.67,-74.48,-23.45,12,72.0,2.1611025
1784070795452,-0.2154597,1.1814902,0.18300654,-21.63,-76.93,-25.27,12,72.0,2.1611025
1784070795452,-0.24254465,1.0687581,0.20618735,-33.74,-72.31,-24.57,13,78.0,2.1611025
1784070795452,-0.21643573,1.0487494,0.16616993,-35.0,-67.9,-21.42,13,78.0,2.1611025
1784070795452,-0.1737342,1.0302048,0.16885403,-33.11,-64.12,-17.43,13,78.0,2.1611025
1784070795501,-0.1259085,1.0162963,0.17007408,-31.85,-61.04,-13.93,13,78.0,2.1611025
1784070795501,-0.087355115,0.9914074,0.16397385,-30.17,-59.43,-11.4800005,13,78.0,2.1611025
1784070795501,-0.06417429,0.9411416,0.17593028,-28.91,-58.45,-9.52,13,78.0,2.1611025
1784070795501,-0.04514161,0.8918519,0.17007408,-23.66,-57.12,-7.84,13,78.0,2.1611025
1784070795501,-0.039529413,0.867695,0.1590937,-21.56,-55.16,-7.42,13,78.0,2.1611025
1784070795501,-0.009028322,0.8537865,0.15860566,-19.32,-53.55,-7.84,13,78.0,2.1611025
1784070795501,-9.7603485E-4,0.8235294,0.15104139,-13.16,-51.45,-9.45,13,78.0,2.1611025
1784070795501,9.7603485E-4,0.76521134,0.17251417,-5.67,-50.47,-12.46,13,78.0,2.1611025
1784070795546,0.013420479,0.7120174,0.17324619,3.85,-49.7,-16.59,13,78.0,2.1611025
1784070795546,0.05514597,0.8213333,0.14103703,7.35,-49.07,-20.3,13,78.0,2.1611025
1784070795546,0.042213507,0.77155554,0.14176907,3.3600001,-47.18,-22.68,13,78.0,2.1611025
1784070795546,0.03220915,0.7359303,0.13103268,1.82,-44.73,-24.29,13,78.0,2.1611025
1784070795546,-0.0019520697,0.71811765,0.100531586,2.73,-42.07,-24.22,13,78.0,2.1611025
1784070795546,-0.03025708,0.7134815,0.08223093,4.06,-38.57,-23.17,13,78.0,2.1611025
1784070795546,-0.039529413,0.71470153,0.061246186,6.23,-35.21,-21.98,13,78.0,2.1611025
1784070795546,-0.03025708,0.73422223,0.05294989,7.07,-31.64,-20.65,13,78.0,2.1611025
1784070795682,0.013176471,0.75715905,0.06954248,3.3600001,-28.0,-18.27,13,78.0,2.1611025
1784070795682,0.060026146,0.7727756,0.04660566,1.05,-26.67,-15.75,13,78.0,2.1611025
1784070795682,0.0978475,0.7744837,0.009028322,-4.13,-27.3,-12.67,13,78.0,2.1611025
1784070795682,0.11248801,0.7527669,-0.017324617,-9.59,-28.77,-9.17,13,78.0,2.1611025
1784070795682,0.078570805,0.7308061,-0.03538126,-12.39,-30.59,-5.7400002,13,78.0,2.1611025
1784070795682,0.060270153,0.699573,-0.027328975,-14.63,-32.97,-2.8700001,13,78.0,2.1611025
1784070795682,0.008296296,0.70591724,-7.320261E-4,-13.65,-33.81,-0.35,13,78.0,2.1611025
1784070795682,-0.0021960784,0.7151896,-0.0012200436,-10.78,-34.16,1.33,13,78.0,2.1611025
1784070795725,-0.029281046,0.7412985,-0.010248366,-4.76,-35.7,0.77,13,78.0,2.1611025
1784070795725,-0.03538126,0.78863615,-0.0053681917,8.19,-33.53,-1.26,13,78.0,2.1611025
1784070795725,-0.054169938,0.8628148,-0.04782571,26.6,-37.31,-2.45,13,78.0,2.1611025
1784070795725,-0.14884531,0.8547625,-0.06856645,22.61,-34.09,-0.7,13,78.0,2.1611025
1784070795725,-0.16568191,0.9169848,0.08247495,16.31,-19.67,1.54,13,78.0,2.1611025
1784070795725,-0.11541612,1.0170283,0.052705884,23.03,-11.69,3.3600001,13,78.0,2.1611025
1784070795725,-0.0073202616,1.1580653,-0.03050109,31.01,-10.29,1.96,13,78.0,2.1611025
1784070795725,0.14445315,1.2393203,-0.018544663,30.17,-7.56,-2.66,13,78.0,2.1611025
1784070795773,0.26450545,1.1631895,0.050509803,14.07,2.8700001,-3.01,14,84.0,2.1611025
1784070795773,0.23424837,1.1058475,0.03586928,0.07,10.92,-0.84000003,14,84.0,2.1611025
1784070795773,0.20643137,1.0904748,0.10980393,3.64,7.56,-1.05,14,84.0,2.1611025
1784070795773,0.1844706,1.1614815,0.1988671,20.23,2.03,-5.46,14,84.0,2.1611025
1784070795773,0.17544226,1.2805578,0.17300218,30.380001,0.84000003,-11.27,14,84.0,2.1611025
1784070795773,0.13054466,1.3923137,0.2884183,25.34,3.57,-15.26,14,84.0,2.1611025
1784070795773,0.02269281,1.5804445,0.44458386,34.16,11.62,-20.72,14,84.0,2.1611025
1784070795773,-0.1288366,1.7602789,0.48899347,59.43,26.460001,-27.58,14,84.0,2.1611025
1784070795862,-0.060270153,1.7026927,0.1590937,42.14,26.18,-28.07,14,84.0,2.1611025
1784070795862,-0.1202963,1.4882091,0.15884967,7.91,13.51,-25.41,14,84.0,2.1611025
1784070795862,-0.32379955,1.3832854,0.34405228,-2.52,2.38,-22.33,14,84.0,2.1611025
1784070795862,-0.4645926,1.3396078,0.37918955,-0.49,-9.8,-21.35,14,84.0,2.1611025
1784070795862,-0.5129063,1.2066231,0.41017866,-1.61,-22.26,-20.16,14,84.0,2.1611025
1784070795862,-0.43750766,1.0465534,0.4394597,-4.62,-34.23,-19.74,14,84.0,2.1611025
1784070795862,-0.2918344,1.0455774,0.4275033,-7.28,-42.35,-18.34,15,90.0,2.1611025
1784070795862,-0.13908496,0.9989717,0.39407408,-9.52,-46.76,-15.05,15,90.0,2.1611025
1784070795995,-0.012200436,0.9208889,0.33477995,-9.17,-46.9,-12.88,15,90.0,2.1611025
1784070795995,0.061490197,0.84500223,0.24449673,-2.59,-43.61,-13.09,15,90.0,2.1611025
1784070795995,0.08759913,0.89038783,0.23790848,-1.12,-38.78,-13.65,15,90.0,2.1611025
1784070795995,0.10297168,1.0162963,0.21667975,-3.29,-31.36,-13.93,15,90.0,2.1611025
1784070795995,0.11102396,1.0524096,0.17690632,-8.4,-24.29,-13.79,15,90.0,2.1611025
1784070795995,0.1259085,0.9911634,0.13371678,-8.61,-18.27,-12.32,15,90.0,2.1611025
1784070795995,0.15738562,0.99653155,0.11932026,2.24,-13.51,-7.42,15,90.0,2.1611025
1784070795995,0.17275818,1.0528976,0.13664488,5.04,-8.61,0.0,15,90.0,2.1611025
1784070796009,0.16958606,1.0121481,0.195939,6.65,-8.19,7.91,15,90.0,2.1611025
1784070796009,0.17080611,0.96017426,0.25889325,1.82,-12.46,13.3,15,90.0,2.1611025
1784070796009,0.06929847,0.8206013,0.34624836,-11.76,-10.85,16.24,15,90.0,2.1611025
1784070796009,0.087843135,0.80840087,0.2015512,-8.19,-21.42,18.41,15,90.0,2.1611025
1784070796009,0.06271024,0.7591111,0.1822745,-6.23,-28.56,18.83,15,90.0,2.1611025
1784070796009,0.04343355,0.71421355,0.15787365,-4.83,-31.64,18.48,15,90.0,2.1611025
1784070796009,0.028549021,0.6751721,0.12834857,-1.54,-33.11,17.01,15,90.0,2.1611025
1784070796009,0.022204792,0.68322444,0.09174728,2.8700001,-33.11,15.33,15,90.0,2.1611025
1784070796085,0.021960784,0.6705359,0.0727146,7.07,-32.41,13.93,15,90.0,2.1611025
1784070796085,0.03611329,0.68078434,0.0588061,10.99,-30.8,12.46,15,90.0,2.1611025
1784070796085,0.027084969,0.70689327,0.033673204,19.04,-29.68,11.06,15,90.0,2.1611025
1784070796085,0.037333332,0.7434946,0.01512854,26.32,-30.03,9.94,15,90.0,2.1611025
1784070796085,0.061246186,0.7713115,-0.0024400873,29.75,-31.85,9.03,15,90.0,2.1611025
1784070796085,0.06905446,0.79986054,-7.320261E-4,34.79,-34.09,6.23,15,90.0,2.1611025
1784070796085,0.06100218,0.7971765,-0.01512854,40.53,-35.63,4.2,15,90.0,2.1611025
1784070796085,0.07539869,0.8218214,-0.023668844,43.12,-37.52,3.22,15,90.0,2.1611025
1784070796176,0.075886704,0.83475375,-0.037333332,44.8,-39.2,2.1,15,90.0,2.1611025
1784070796176,0.074666664,0.8664749,-0.0419695,35.49,-41.3,0.56,15,90.0,2.1611025
1784070796176,0.08637909,0.8589107,-0.019764706,21.35,-43.89,-1.26,15,90.0,2.1611025
1784070796176,0.09711547,0.839878,0.0012200436,9.45,-45.29,-3.99,15,90.0,2.1611025
1784070796176,0.12542048,0.840854,0.0021960784,-0.21000001,-44.87,-7.21,15,90.0,2.1611025
1784070796176,0.1590937,0.86354685,-0.006832244,-8.96,-43.26,-10.85,15,90.0,2.1611025
1784070796176,0.18349455,0.8711111,-0.053925924,-17.64,-40.74,-14.56,15,90.0,2.1611025
1784070796176,0.22546406,0.8425621,-0.06832244,-25.48,-38.78,-17.78,15,90.0,2.1611025
1784070796222,0.29842266,0.8201133,-0.038309366,-31.5,-38.64,-19.81,15,90.0,2.1611025
1784070796222,0.35186055,0.8464662,0.096383445,-32.27,-37.38,-20.65,15,90.0,2.1611025
1784070796222,0.32428756,0.88965577,0.099311545,-33.88,-32.34,-19.25,15,90.0,2.1611025
1784070796222,0.23327233,0.95285404,0.03220915,-26.04,-25.27,-16.52,15,90.0,2.1611025
1784070796222,0.18935075,0.99823964,-0.04928976,-19.95,-20.65,-13.86,15,90.0,2.1611025
1784070796222,0.24937691,1.0616819,-0.06295425,-10.99,-21.35,-12.67,15,90.0,2.1611025
1784070796222,0.3501525,1.1707537,0.030013073,2.73,-27.23,-12.53,15,90.0,2.1611025
1784070796222,0.3525926,1.2793376,-0.04026144,31.99,-29.960001,-9.8,15,90.0,2.1611025
1784070796312,0.23449236,1.3581525,-0.12834857,71.82,-30.45,-3.08,15,90.0,2.1611025
1784070796312,0.22619607,1.4479476,-0.21399564,88.06,-28.49,6.3,15,90.0,2.1611025
1784070796312,-0.28988236,1.3652288,-0.17666231,70.28,-28.630001,17.08,15,90.0,2.1611025
1784070796312,-0.36235294,1.2461525,-0.17837037,39.41,-30.52,22.82,15,90.0,2.1611025
1784070796312,-0.3054989,1.1248802,0.14201307,12.53,-31.15,23.17,16,96.0,2.1611025
1784070796312,-0.054901965,1.1678257,0.1176122,11.9,-18.13,22.89,16,96.0,2.1611025
1784070796312,0.25425708,1.3383878,-0.06783442,29.26,-6.58,23.38,16,96.0,2.1611025
1784070796312,0.3279477,1.3762091,0.11370806,23.87,-8.26,22.47,16,96.0,2.1611025
1784070796403,0.19179085,1.4472157,0.09955555,30.31,-6.93,21.28,16,96.0,2.1611025
1784070796403,0.068078436,1.6341263,-0.0644183,45.08,-3.99,25.69,16,96.0,2.1611025
1784070796403,-0.026840959,1.5170022,0.08930719,18.2,-12.6,31.15,16,96.0,2.1611025
1784070796403,0.010980392,1.3005664,0.11834422,5.39,-12.74,32.27,16,96.0,2.1611025
1784070796403,-0.04782571,1.2285838,0.083206974,3.85,-11.34,34.51,16,96.0,2.1611025
1784070796403,-0.020008715,1.203207,0.27255774,1.4,-9.45,39.27,16,96.0,2.1611025
1784070796403,0.02074074,1.1697778,0.39724618,2.8,-5.95,45.22,16,96.0,2.1611025
1784070796403,-0.024888888,1.1275643,0.41261876,3.08,-2.38,49.63,16,96.0,2.1611025
1784070796448,-0.08637909,1.0292288,0.44482788,-6.3,-1.26,52.43,17,102.0,2.1611025
1784070796448,-0.10858388,0.9001482,0.4848453,-13.51,-1.6800001,53.06,17,102.0,2.1611025
1784070796448,-0.13298476,0.8798954,0.45727232,-14.49,-3.3600001,52.64,17,102.0,2.1611025
1784070796448,-0.1651939,0.87257516,0.40456644,-20.93,-7.21,51.52,17,102.0,2.1611025
1784070796448,-0.17885838,0.87623525,0.38748583,-27.23,-10.78,49.21,17,102.0,2.1611025
1784070796448,-0.15640959,0.8650109,0.39016995,-18.06,-13.02,45.78,17,102.0,2.1611025
1784070796448,-0.11273203,0.9164967,0.34210023,11.69,-15.75,40.18,17,102.0,2.1611025
1784070796448,-0.049777776,1.4220828,0.16031373,33.25,-14.84,27.86,17,102.0,2.1611025
1784070796536,-0.06856645,1.4062222,0.16324182,-10.29,-17.64,10.36,17,102.0,2.1611025
1784070796536,-0.076862745,1.1319563,0.24327669,-25.48,-20.72,-4.69,18,108.0,2.1611025
1784070796536,-0.10882789,1.1112157,0.18837473,-23.94,-22.68,-19.11,18,108.0,2.1611025
1784070796536,-0.14225708,1.0851067,0.16958606,-27.44,-25.48,-30.87,18,108.0,2.1611025
1784070796536,-0.17641829,0.9955556,0.17666231,-32.06,-27.16,-39.34,18,108.0,2.1611025
1784070796536,-0.16861002,0.9404096,0.15787365,-29.68,-26.74,-44.1,18,108.0,2.1611025
1784070796536,-0.13835293,0.8906318,0.1515294,-24.78,-26.53,-44.87,18,108.0,2.1611025
1784070796536,-0.09369934,0.84353817,0.15299346,-22.47,-25.9,-43.19,18,108.0,2.1611025
1784070796584,-0.042701527,0.81328106,0.14274509,-22.4,-24.57,-37.94,18,108.0,2.1611025
1784070796584,-0.025376907,0.7793639,0.11346405,-18.2,-23.03,-29.89,18,108.0,2.1611025
1784070796584,-0.01146841,0.700305,0.13908496,-15.54,-21.49,-21.210001,18,108.0,2.1611025
1784070796584,0.017324617,0.7183617,0.11517211,-14.0,-18.48,-14.21,18,108.0,2.1611025
1784070796584,0.021472767,0.6924967,0.114928104,-12.95,-15.82,-9.8,18,108.0,2.1611025
1784070796584,0.037089325,0.6964009,0.11151198,-7.77,-14.14,-7.14,18,108.0,2.1611025
1784070796584,0.06246623,0.71884966,0.12786056,-2.17,-13.93,-5.88,18,108.0,2.1611025
1784070796584,0.08759913,0.76081914,0.12005229,4.13,-13.440001,-5.81,18,108.0,2.1611025
1784070796715,0.09687146,0.7761917,0.101019606,7.7,-12.95,-6.93,18,108.0,2.1611025
1784070796715,0.08101089,0.7891242,0.09369934,8.82,-12.53,-8.75,18,108.0,2.1611025
1784070796715,0.07661873,0.7617952,0.06417429,9.8,-11.55,-9.38,18,108.0,2.1611025
1784070796715,0.059538126,0.7776558,0.026352942,9.24,-10.78,-10.08,18,108.0,2.1611025
1784070796715,0.0073202616,0.784488,0.034405228,8.68,-9.45,-10.08,18,108.0,2.1611025
1784070796715,0.030013073,0.8047407,-4.8801742E-4,6.58,-5.81,-8.05,18,108.0,2.1611025
1784070796715,-0.1512854,0.80937696,0.04538562,3.3600001,-4.62,-5.46,18,108.0,2.1611025
1784070796715,0.024888888,0.8149891,-0.030745098,-0.84000003,-0.14,-1.4,18,108.0,2.1611025
1784070796801,0.016836602,0.8257255,-0.012444444,-4.2,4.2,2.8,18,108.0,2.1611025
1784070796801,-0.025620917,0.8493943,-0.03538126,-7.7,8.26,6.79,18,108.0,2.1611025
1784070796801,0.018544663,0.85720265,-0.107363835,-12.04,12.11,9.94,18,108.0,2.1611025
1784070796801,-0.02074074,0.8201133,-0.1483573,-17.36,14.77,12.25,18,108.0,2.1611025
1784070796801,-0.04562963,0.7852201,-0.18007843,-17.29,15.82,14.07,18,108.0,2.1611025
1784070796801,-0.058562092,0.75471896,-0.16055775,-12.81,14.07,14.63,18,108.0,2.1611025
1784070796801,-0.08052288,0.7254379,-0.095407404,-5.25,15.47,14.35,18,108.0,2.1611025
1784070796801,-0.10248367,0.73202616,-0.034893245,4.48,18.2,13.37,18,108.0,2.1611025
1784070796813,-0.11322004,0.7808279,0.035137255,18.2,23.59,10.64,18,108.0,2.1611025
1784070796813,-0.15299346,0.82108927,-0.0419695,29.61,23.59,7.21,18,108.0,2.1611025
1784070796813,-0.20935948,0.88550764,0.05661002,25.62,22.47,4.27,18,108.0,2.1611025
1784070796813,-0.31550327,1.0109282,0.20106317,28.42,26.04,1.33,18,108.0,2.1611025
1784070796813,-0.22424401,1.0899869,0.16104576,36.82,26.32,-1.12,18,108.0,2.1611025
1784070796813,-0.04660566,1.2446885,0.027816994,42.35,26.53,-6.7200003,18,108.0,2.1611025
1784070796813,0.017568627,1.3771852,-0.016592592,35.28,27.86,-14.63,18,108.0,2.1611025
1784070796813,0.08808714,1.1980828,-0.06393028,23.66,22.26,-19.81,18,108.0,2.1611025
1784070796898,0.0046361657,1.0280087,-0.09321132,17.22,7.42,-19.67,19,114.0,2.1611025
1784070796898,-0.20838344,1.0772985,0.24474074,26.11,-7.7,-21.0,19,114.0,2.1611025
1784070796898,-0.36845317,1.2542048,0.35478866,46.41,-9.52,-28.42,19,114.0,2.1611025
1784070796898,-0.37113726,1.2937342,-0.094187364,45.920002,-13.79,-33.670002,19,114.0,2.1611025
1784070796898,-0.23180829,1.4313551,-0.14786929,16.24,-25.76,-34.16,19,114.0,2.1611025
1784070796898,-0.16153377,1.4955294,0.12249237,0.21000001,-26.81,-31.64,19,114.0,2.1611025
1784070796898,-0.27084967,1.4718606,0.4538562,10.71,-9.03,-26.6,19,114.0,2.1611025
1784070796898,-0.20789543,1.6092374,0.41920698,33.18,9.03,-24.92,19,114.0,2.1611025
1784070796987,0.08027887,1.6956166,0.32599562,42.63,19.25,-30.03,19,114.0,2.1611025
1784070796987,0.21448365,1.57166,0.2405926,22.54,21.14,-34.23,19,114.0,2.1611025
1784070796987,0.13908496,1.374501,0.34942046,-6.51,14.77,-35.07,19,114.0,2.1611025
1784070796987,0.050021786,1.2478606,0.42091504,-18.41,6.58,-38.08,19,114.0,2.1611025
1784070796987,0.05563399,1.1600174,0.54365146,-22.68,0.07,-42.91,19,114.0,2.1611025
1784070796987,0.05661002,1.1339084,0.50900215,-23.8,-5.18,-47.39,19,114.0,2.1611025
1784070796987,0.0036601308,1.034109,0.4562963,-24.15,-10.85,-48.02,20,120.0,2.1611025
1784070796987,-0.010248366,0.91234857,0.40944663,-20.79,-13.65,-45.78,20,120.0,2.1611025
1784070797026,-0.051241834,0.8706231,0.32209152,-12.04,-13.79,-40.25,20,120.0,2.1611025
1784070797026,-0.11932026,0.9426057,0.2549891,-7.91,-12.53,-30.87,20,120.0,2.1611025
1784070797026,-0.12786056,0.9450457,0.19959912,-5.39,-7.14,-20.09,20,120.0,2.1611025
1784070797026,-0.117124185,0.99335945,0.12712854,-1.54,1.54,-7.42,20,120.0,2.1611025
1784070797026,-0.059782133,0.9672506,0.10467974,-0.91,9.1,5.6,20,120.0,2.1611025
1784070797026,0.029037038,1.0182483,0.08418301,6.16,14.7,17.22,20,120.0,2.1611025
1784070797026,0.12249237,1.0289848,0.13884096,-1.33,18.34,25.41,20,120.0,2.1611025
1784070797026,0.16909803,0.98457515,0.20350327,-10.29,20.23,30.03,20,120.0,2.1611025
1784070797121,0.19423094,0.8794074,0.20862745,-16.31,19.74,31.5,20,120.0,2.1611025
1784070797121,0.19447495,0.80937696,0.20789543,-15.89,18.2,29.33,20,120.0,2.1611025
1784070797121,0.17153813,0.77106756,0.18105447,-13.09,13.79,25.41,20,120.0,2.1611025
1784070797121,0.13566884,0.70982134,0.17300218,-9.24,11.27,20.72,20,120.0,2.1611025
1784070797121,0.12102832,0.6944488,0.120540306,-3.85,8.68,16.31,20,120.0,2.1611025
1784070797121,0.10882789,0.700549,0.09687146,-2.45,7.56,13.16,20,120.0,2.1611025
1784070797121,0.08003486,0.6632157,0.0783268,1.82,7.98,10.71,20,120.0,2.1611025
1784070797121,0.061490197,0.672732,0.06466231,4.69,8.12,10.08,20,120.0,2.1611025
1784070797223,0.03416122,0.6605316,0.070030496,10.15,8.47,10.22,20,120.0,2.1611025
1784070797223,0.014396514,0.6924967,0.042457517,16.17,8.75,9.52,20,120.0,2.1611025
1784070797223,-0.011712418,0.69835293,0.04026144,23.8,8.47,8.68,20,120.0,2.1611025
1784070797223,-0.04953377,0.7403225,0.016348584,33.04,6.86,8.26,20,120.0,2.1611025
1784070797223,-0.07417865,0.79034424,0.009272331,39.41,3.57,8.33,20,120.0,2.1611025
1784070797223,-0.1007756,0.85061437,-0.0019520697,39.55,-1.33,8.26,20,120.0,2.1611025
1784070797223,-0.09955555,0.8537865,0.0029281045,32.13,-7.7,8.54,20,120.0,2.1611025
1784070797223,-0.10785185,0.8567146,-0.018056644,25.13,-13.09,8.05,20,120.0,2.1611025
1784070797298,-0.09979956,0.86037475,-0.013664488,19.11,-17.36,6.58,20,120.0,2.1611025
1784070797298,-0.06905446,0.840366,-0.0026840959,13.79,-19.88,4.13,20,120.0,2.1611025
1784070797298,-0.03220915,0.8581786,-0.008296296,6.93,-21.7,0.91,20,120.0,2.1611025
1784070797298,0.010004357,0.86793894,-0.019276688,-0.21000001,-21.84,-2.59,20,120.0,2.1611025
1784070797298,0.058562092,0.86379087,-0.048313726,-5.53,-19.74,-5.88,20,120.0,2.1611025
1784070797298,0.11029194,0.85329854,-0.11175599,-12.25,-17.15,-9.1,20,120.0,2.1611025
1784070797298,0.083206974,0.80327666,-0.08979521,-22.05,-11.41,-12.6,20,120.0,2.1611025
1784070797298,0.19984314,0.83353376,-0.13884096,-22.47,-16.17,-16.03,20,120.0,2.1611025
1784070797347,0.22985621,0.8332898,-0.07735076,-24.08,-18.97,-19.18,20,120.0,2.1611025
1784070797347,0.24986492,0.84012204,0.015372549,-19.81,-20.16,-21.91,20,120.0,2.1611025
1784070797347,0.17739433,0.8508584,0.022448802,-16.8,-18.55,-23.87,20,120.0,2.1611025
1784070797347,0.053193897,0.92162085,-0.012688453,-6.23,-12.39,-24.08,20,120.0,2.1611025
1784070797347,-0.040993463,0.9997037,-0.025376907,0.98,-9.87,-22.75,20,120.0,2.1611025
1784070797347,-0.02293682,1.0494815,0.056122,3.92,-12.67,-20.37,20,120.0,2.1611025
1784070797347,0.04611765,1.1095077,0.19667102,10.22,-20.3,-18.13,20,120.0,2.1611025
1784070797347,0.053925924,1.2066231,0.17812636,23.52,-30.45,-14.21,20,120.0,2.1611025
1784070797436,0.023912854,1.287146,-0.007808279,37.31,-38.36,-6.16,20,120.0,2.1611025
1784070797436,-0.015372549,1.2795818,-0.10321569,40.11,-42.91,4.55,20,120.0,2.1611025
1784070797436,-0.061490197,1.2651852,-0.07710675,34.02,-38.01,13.09,20,120.0,2.1611025
1784070797436,-0.14884531,1.1780741,-0.10858388,27.51,-23.87,17.15,21,125.99999,2.1611025
1784070797436,-0.0644183,1.0607059,-0.053681917,33.25,-17.78,16.59,21,125.99999,2.1611025
1784070797436,0.013908497,1.0880349,0.10687582,27.37,-9.59,13.02,21,125.99999,2.1611025
1784070797436,0.14860131,1.0680262,0.29256645,8.96,-8.12,7.28,21,125.99999,2.1611025
1784070797436,0.26401743,1.230292,0.25816122,0.56,-10.15,5.04,21,125.99999,2.1611025
1784070797483,0.29769063,1.3952419,0.16299781,20.58,-12.6,8.05,21,125.99999,2.1611025
1784070797483,0.019276688,1.3659607,0.16324182,54.39,-19.6,11.83,21,125.99999,2.1611025
1784070797483,-0.32404357,1.3686448,0.09150327,83.79,-23.73,16.94,21,125.99999,2.1611025
1784070797483,-0.45702833,1.1392767,-0.022448802,61.88,-25.62,20.3,21,125.99999,2.1611025
1784070797483,-0.32623965,1.038257,0.21667975,6.86,-35.14,27.02,22,132.0,2.1611025
1784070797483,-0.019520698,1.0148323,0.39016995,-14.21,-33.32,37.31,22,132.0,2.1611025
1784070797483,0.0046361657,1.0219084,0.27768192,2.94,-24.57,46.2,22,132.0,2.1611025
1784070797483,0.0107363835,1.0658301,0.46605664,12.25,-22.33,53.62,22,132.0,2.1611025
1784070797571,0.08467103,1.0965751,0.56048805,11.55,-16.31,57.12,22,132.0,2.1611025
1784070797571,0.08369499,1.0558257,0.45971242,6.58,-14.0,55.86,23,138.0,2.1611025
1784070797571,0.05294989,1.0397211,0.38431373,-2.38,-14.0,50.96,23,138.0,2.1611025
1784070797571,0.005856209,0.98384315,0.3218475,-8.26,-14.56,43.89,23,138.0,2.1611025
1784070797571,-0.018300654,0.8030327,0.37138125,7.35,-16.52,32.83,23,138.0,2.1611025
1784070797571,0.022204792,1.3576645,0.20691939,61.6,-15.47,15.96,23,138.0,2.1611025
1784070797571,-0.088331155,1.3310674,0.15006536,34.16,-19.6,-2.73,23,138.0,2.1611025
1784070797571,-0.12688452,1.232,0.11566014,28.84,-26.39,-16.94,23,138.0,2.1611025
1784070797615,-0.1905708,1.2722614,0.120540306,16.1,-32.13,-25.55,23,138.0,2.1611025
1784070797615,-0.22302397,1.1780741,0.13274074,0.42000002,-34.65,-28.84,23,138.0,2.1611025
1784070797615,-0.25108495,1.1339084,0.1261525,-10.64,-34.93,-29.75,24,144.0,2.1611025
1784070797615,-0.25986928,1.0509455,0.14616123,-9.03,-33.39,-28.28,24,144.0,2.1611025
1784070797615,-0.25645316,1.0511895,0.12908061,-10.43,-31.99,-24.92,24,144.0,2.1611025
1784070797615,-0.21155554,1.033865,0.13664488,-11.27,-30.8,-20.58,24,144.0,2.1611025
1784070797615,-0.16324182,1.0424052,0.1285926,-10.57,-30.24,-17.08,24,144.0,2.1611025
1784070797615,-0.11834422,1.0668061,0.102727674,-13.65,-30.8,-14.84,24,144.0,2.1611025
1784070797705,-0.050265793,1.0580218,0.10248367,-20.16,-32.34,-13.09,24,144.0,2.1611025
1784070797705,-0.022204792,1.006048,0.10858388,-23.03,-33.32,-13.09,24,144.0,2.1611025
1784070797705,0.0021960784,0.9704227,0.09199129,-24.08,-33.04,-13.65,24,144.0,2.1611025
1784070797705,0.02293682,0.93113726,0.108339876,-20.3,-31.78,-14.84,24,144.0,2.1611025
1784070797705,0.023668844,0.86842704,0.11004794,-14.91,-29.47,-15.33,24,144.0,2.1611025
1784070797705,0.026596949,0.8530544,0.10345969,-11.2,-28.0,-16.8,24,144.0,2.1611025
1784070797705,0.03196514,0.82108927,0.109071895,-6.79,-27.23,-18.13,24,144.0,2.1611025
1784070797705,0.026108934,0.8062048,0.10541177,-5.18,-27.02,-19.25,24,144.0,2.1611025
1784070797798,0.02293682,0.80571675,0.10004357,-7.0,-27.44,-19.67,24,144.0,2.1611025
1784070797798,0.0019520697,0.78229195,0.09491939,-10.43,-28.0,-18.97,24,144.0,2.1611025
1784070797798,-0.025132896,0.7622832,0.105655774,-12.81,-28.28,-17.43,24,144.0,2.1611025
1784070797798,-0.049045753,0.756183,0.10614379,-13.3,-27.58,-15.4,24,144.0,2.1611025
1784070797798,-0.08198693,0.73910236,0.090039216,-13.02,-26.32,-13.16,24,144.0,2.1611025
1784070797798,-0.09491939,0.72861004,0.084427014,-11.76,-25.06,-10.92,24,144.0,2.1611025
1784070797798,-0.08467103,0.7127495,0.08174292,-11.06,-23.94,-8.47,24,144.0,2.1611025
1784070797798,-0.07173856,0.7151896,0.07222658,-11.55,-23.17,-5.67,24,144.0,2.1611025
1784070797840,-0.075154684,0.71787363,0.0729586,-12.46,-23.38,-3.78,24,144.0,2.1611025
1784070797840,-0.07125054,0.7127495,0.05465795,-12.04,-24.36,-2.66,24,144.0,2.1611025
1784070797840,-0.09174728,0.6988409,0.027816994,-14.7,-26.460001,-1.89,24,144.0,2.1611025
1784070797840,-0.117124185,0.6785882,0.023668844,-15.190001,-29.19,-1.19,24,144.0,2.1611025
1784070797840,-0.15348148,0.672,-0.0036601308,-14.77,-32.2,-1.05,24,144.0,2.1611025
1784070797840,-0.18642265,0.6671198,-0.00951634,-13.51,-36.75,-1.89,24,144.0,2.1611025
1784070797840,-0.19081481,0.66028756,-0.01903268,-9.66,-42.49,-3.29,24,144.0,2.1611025
1784070797840,-0.20691939,0.67029196,-0.023668844,-5.67,-48.16,-4.76,24,144.0,2.1611025
1784070797930,-0.23083223,0.67712414,-0.034893245,-2.1,-53.13,-5.7400002,24,144.0,2.1611025
1784070797930,-0.24083659,0.7020131,-0.04562963,1.19,-56.14,-6.09,24,144.0,2.1611025
1784070797930,-0.27084967,0.7190937,-0.026108934,4.48,-55.93,-6.44,24,144.0,2.1611025
1784070797930,-0.27865794,0.7500828,0.0019520697,9.24,-52.5,-6.93,24,144.0,2.1611025
1784070797930,-0.2322963,0.8027887,0.013908497,12.88,-47.11,-8.19,24,144.0,2.1611025
1784070797930,-0.18935075,0.84890634,-0.017812636,15.54,-42.14,-10.22,24,144.0,2.1611025
1784070797930,-0.12273638,0.88331157,-0.03538126,15.61,-39.83,-11.97,24,144.0,2.1611025
1784070797930,-0.05563399,0.90088016,-0.043189544,14.35,-39.97,-13.02,24,144.0,2.1611025
1784070798196,-2.4400871E-4,0.8918519,-0.051241834,11.83,-41.23,-13.440001,24,144.0,2.1611025
1784070798196,0.013420479,0.87623525,-0.067590415,6.09,-42.84,-12.81,24,144.0,2.1611025
1784070798196,0.013908497,0.8613507,-0.06051416,-0.28,-44.24,-11.06,24,144.0,2.1611025
1784070798196,0.0029281045,0.8274335,-0.06515033,-3.85,-45.08,-8.68,24,144.0,2.1611025
1784070798196,-0.031233115,0.7947364,-0.060758173,-4.41,-45.36,-5.95,24,144.0,2.1611025
1784070798196,-0.085403055,0.80498475,-0.059538126,-0.77,-45.57,-3.3600001,24,144.0,2.1611025
1784070798196,-0.121272326,0.784976,-0.055877995,5.81,-44.31,-1.47,24,144.0,2.1611025
1784070798196,-0.15567756,0.784,-0.075154684,6.65,-42.77,0.28,24,144.0,2.1611025
1784070798292,-0.17690632,0.80010456,-0.06271024,6.37,-40.6,1.19,24,144.0,2.1611025
1784070798292,-0.195695,0.8059608,-0.042945534,8.26,-38.36,1.82,24,144.0,2.1611025
1784070798292,-0.19642702,0.7613072,-0.053193897,5.25,-37.170002,2.1,24,144.0,2.1611025
1784070798292,-0.20594336,0.74471456,-0.039529413,4.27,-36.4,1.6800001,24,144.0,2.1611025
1784070798292,-0.16031373,0.7234858,-0.02098475,0.7,-35.63,0.98,24,144.0,2.1611025
1784070798292,-0.104435734,0.671268,0.17129412,-4.9,-34.44,0.35,24,144.0,2.1611025
1784070798292,-0.019764706,0.671268,0.36967322,3.01,-29.960001,-1.05,24,144.0,2.1611025
1784070798292,0.047093682,0.69591284,0.51388234,12.25,-23.38,-4.48,24,144.0,2.1611025
1784070798315,0.12810457,0.81620914,0.5260828,18.9,-17.36,-10.71,24,144.0,2.1611025
1784070798315,0.1515294,0.96505445,0.67395204,17.43,-8.61,-18.2,24,144.0,2.1611025
1784070798315,0.2125316,1.1697778,0.96041834,14.0,2.24,-27.58,24,144.0,2.1611025
1784070798315,0.4333595,1.6904924,0.9596863,36.47,7.28,-45.08,24,144.0,2.1611025
1784070798315,0.76350325,2.4569237,1.4050022,107.87,10.08,-74.69,24,144.0,2.9314575
1784070798315,0.8581786,2.7682788,1.0694902,170.52,6.09,-87.78,24,144.0,3.0892794
1784070798315,0.9948235,2.5808802,0.31403923,108.29,-21.63,-105.42,24,144.0,3.0892794
1784070798315,0.5661002,1.8161569,0.2659695,-55.16,-35.49,-100.38,24,144.0,3.0892794
1784070798325,-0.3730893,2.4439912,-0.1202963,10.08,-32.55,-66.92,24,144.0,3.0892794
1784070798325,-0.7642353,1.7514945,-0.13005665,-58.87,-60.34,-30.31,24,144.0,3.0892794
1784070798325,-0.61416996,1.5004096,0.06734641,-127.4,-72.8,-0.35,24,144.0,3.0892794
1784070798325,-0.5429194,1.2075992,0.23937255,-102.97,-60.13,22.26,24,144.0,3.0892794
1784070798325,-0.3308758,1.2256558,0.26987365,-63.49,-47.04,36.47,24,144.0,3.0892794
1784070798325,-0.19447495,1.315939,0.34990847,-40.11,-44.45,41.51,24,144.0,3.0892794
1784070798325,-0.09369934,1.3037386,0.28963834,-25.9,-49.35,39.55,24,144.0,3.0892794
1784070798325,-0.0039041394,1.3747451,0.18642265,-8.68,-53.27,30.380001,24,144.0,3.0892794
1784070798331,0.0588061,1.3869455,0.10711983,-1.12,-55.23,14.42,24,144.0,3.0892794
1784070798331,0.08808714,1.3671808,0.079058826,4.06,-56.77,-4.97,24,144.0,3.0892794
1784070798331,0.09125926,1.2359041,0.06515033,-0.35,-57.89,-21.07,24,144.0,3.0892794
1784070798331,0.1288366,1.0982832,0.058562092,-6.37,-55.23,-33.25,25,150.0,3.0892794
1784070798331,0.16397385,1.0973072,0.013664488,-4.27,-50.26,-40.88,25,150.0,3.0892794
1784070798331,0.17641829,1.0660741,0.07442266,-9.17,-49.0,-42.63,25,150.0,3.0892794
1784070798331,0.14030501,0.96871465,0.050021786,-12.67,-48.37,-39.27,25,150.0,3.0892794
1784070798331,0.0922353,0.8825795,0.027084969,-6.79,-46.76,-32.13,25,150.0,3.0892794
1784070798381,0.06246623,0.84353817,0.02830501,-7.63,-49.28,-24.01,25,150.0,3.0892794
1784070798381,0.00756427,0.75130284,0.027816994,-16.87,-53.83,-16.24,25,150.0,3.0892794
1784070798381,-0.060758173,0.68810457,0.004392157,-29.47,-56.07,-7.7,25,150.0,3.0892794
1784070798381,-0.054901965,0.6646797,-0.014640523,-47.81,-54.88,0.63,25,150.0,3.0892794
1784070798381,0.010492375,0.6524793,-0.02269281,-54.04,-50.26,5.6,25,150.0,3.0892794
1784070798381,0.054413944,0.644427,-0.04343355,-55.09,-47.18,6.86,25,150.0,3.0892794
1784070798381,0.08296296,0.64979523,-0.024888888,-53.97,-46.41,5.67,25,150.0,3.0892794
1784070798381,0.09101525,0.6383268,-0.067590415,-50.47,-45.57,3.22,25,150.0,3.0892794
1784070798425,0.11907625,0.6380828,-0.12542048,-45.71,-43.05,-0.98,25,150.0,3.0892794
1784070798425,0.07954685,0.59367317,-0.14616123,-41.3,-41.79,-4.97,25,150.0,3.0892794
1784070798425,0.15055338,0.5287669,-0.08003486,-34.3,-41.79,-9.59,25,150.0,3.0892794
1784070798425,0.058562092,0.5414553,-0.17275818,-16.66,-40.18,-14.28,25,150.0,3.0892794
1784070798425,0.0783268,0.5121743,-0.14103703,-11.97,-44.87,-17.99,25,150.0,3.0892794
1784070798425,0.052705884,0.5209586,-0.17446622,1.12,-46.13,-21.91,25,150.0,3.0892794
1784070798425,-0.0024400873,0.5792767,-0.14006099,11.62,-42.84,-25.76,25,150.0,3.0892794
1784070798425,0.026840959,0.58196074,-0.18154249,17.01,-49.77,-29.12,25,150.0,3.0892794
1784070798734,0.031233115,0.60074943,-0.16714597,21.35,-52.64,-32.83,25,150.0,3.0892794
1784070798734,0.13932897,0.5482876,0.13640088,25.27,-58.38,-37.170002,25,150.0,3.0892794
1784070798734,0.5656122,0.49460566,1.0214205,35.91,-78.12,-42.63,25,150.0,3.0892794
1784070798734,0.80254465,0.72616994,2.3122265,77.7,-115.15,-46.69,25,150.0,3.0892794
1784070798734,0.44433987,1.3686448,1.7744313,102.69,-132.09,-35.21,25,150.0,3.0892794
1784070798734,-1.1512331,2.5669718,1.1331764,190.33,-134.61,-11.97,25,150.0,3.0892794
1784070798734,-2.122388,2.1987624,-0.7732636,168.35,-113.12,26.460001,25,150.0,3.1523044
1784070798734,-1.4733247,0.4870414,-0.5665882,-150.08,-128.31,44.87,25,150.0,3.1523044
1784070799046,-0.5963573,0.48167318,-0.08369499,-147.7,-90.93,52.85,26,156.0,3.1523044
1784070799046,0.06393028,0.87745535,0.21985185,-58.59,-77.91,59.99,26,156.0,3.1523044
1784070799046,0.69835293,0.9404096,0.5492636,64.89,-69.3,52.43,26,156.0,3.1523044
1784070799046,0.7776558,1.090719,0.45312417,154.14,-65.17,36.54,26,156.0,3.1523044
1784070799046,0.69200873,1.4457517,0.17910239,105.7,-66.5,25.27,26,156.0,3.1523044
1784070799046,0.533159,1.3332636,0.24254465,37.1,-70.98,11.13,26,156.0,3.1523044
1784070799046,0.3306318,1.201011,0.29817864,32.9,-69.02,-3.99,26,156.0,3.1523044
1784070799046,0.059050106,1.1897866,0.37748146,47.95,-71.54,-12.88,26,156.0,3.1523044
1784070799064,-0.1793464,1.7534467,0.15518954,70.28,-71.54,-11.76,26,156.0,3.1523044
1784070799064,-0.22155991,1.6348584,0.33380392,66.92,-72.73,-6.65,26,156.0,3.1523044
1784070799064,-0.3333159,1.6455947,0.19789107,54.53,-64.96,-0.56,26,156.0,3.1523044
1784070799064,-0.35405663,1.4899172,0.19252288,-0.14,-60.13,3.08,26,156.0,3.1523044
1784070799064,-0.3298998,1.2951982,0.2571852,-31.64,-57.260002,2.31,26,156.0,3.1523044
1784070799064,-0.35430065,1.204183,0.2210719,-40.39,-55.09,-0.42000002,26,156.0,3.1523044
1784070799064,-0.3555207,1.17661,0.18837473,-47.39,-55.23,-4.83,26,156.0,3.1523044
1784070799064,-0.32477558,1.0990152,0.19618301,-60.97,-58.170002,-10.99,27,162.0,3.1523044
1784070799075,-0.30037472,1.0272768,0.21277559,-68.46,-62.16,-16.45,27,162.0,3.1523044
1784070799075,-0.26645753,0.979451,0.20594336,-68.32,-68.74,-19.53,27,162.0,3.1523044
1784070799075,-0.21765578,0.9496819,0.20374727,-65.52,-75.11,-20.72,27,162.0,3.1523044
1784070799075,-0.16958606,0.92210895,0.195939,-63.420002,-80.22,-21.49,27,162.0,3.1523044
1784070799075,-0.15860566,0.88941175,0.20447929,-63.21,-85.47,-21.91,27,162.0,3.1523044
1784070799075,-0.16177778,0.8557386,0.21179956,-60.9,-88.9,-21.91,27,162.0,3.1523044
1784070799075,-0.15518954,0.81864923,0.17983443,-54.18,-91.63,-21.7,27,162.0,3.1523044
1784070799075,-0.119564265,0.79278433,0.16616993,-45.22,-94.22,-21.7,27,162.0,3.1523044
1784070799081,-0.09906754,0.74081045,0.13615687,-38.43,-96.6,-22.12,27,162.0,3.1523044
1784070799081,-0.05514597,0.67566013,0.15299346,-34.93,-99.75,-22.4,27,162.0,3.1523044
1784070799081,-0.03611329,0.62027013,0.124200426,-28.35,-106.47,-22.26,27,162.0,3.1523044
1784070799081,-0.042701527,0.5233987,0.14933333,-22.19,-111.44,-20.02,27,162.0,3.1523044
1784070799081,-0.09565142,0.5273028,0.1261525,-11.13,-118.58,-17.22,27,162.0,3.1523044
1784070799081,-0.19203486,0.45800436,0.13908496,-11.4800005,-116.48,-14.7,27,162.0,3.1523044
1784070799081,-0.25742918,0.44653592,0.115904145,-8.61,-117.11,-13.79,27,162.0,3.1523044
1784070799081,-0.18935075,0.644427,-0.042701527,13.51,-131.04,-14.7,27,162.0,3.1523044
1784070799084,-0.26889762,0.4609325,0.10760784,6.79,-127.61,-17.29,27,162.0,3.1523044
1784070799084,-0.19154684,0.6346666,-0.11151198,28.210001,-142.17,-20.93,27,162.0,3.1523044
1784070799084,-0.25986928,0.42579523,0.083206974,20.86,-141.61,-23.17,27,162.0,3.1523044
1784070799084,-0.20813943,0.5143704,-0.04684967,30.52,-154.77,-23.45,27,162.0,3.1523044
1784070799084,-0.27890193,0.39041394,0.252061,19.88,-151.48,-21.28,27,162.0,3.1523044
1784070799084,-0.3503965,0.5182745,0.28134203,12.74,-147.07,-22.26,27,162.0,3.1523044
1784070799084,-0.31257516,0.63198256,0.3779695,1.6800001,-136.78,-26.880001,27,162.0,3.1523044
1784070799084,-0.34893245,0.7434946,0.589281,-13.02,-114.24,-32.9,27,162.0,3.1523044
1784070799093,-0.4284793,1.0453333,0.8503704,-25.34,-78.05,-43.19,27,162.0,3.1523044
1784070799093,-0.06051416,1.9381611,1.0026318,-9.17,-44.87,-69.16,27,162.0,3.1523044
1784070799093,1.5013856,3.309246,0.3835817,95.27,-55.79,-133.49,27,162.0,3.654094
1784070799093,2.2597647,2.1670415,-9.7603485E-4,42.56,-53.2,-170.38,27,162.0,3.654094
1784070799093,1.1341525,1.5777603,0.40261438,-47.88,-62.3,-162.47,27,162.0,3.654094
1784070799093,0.27280176,1.624854,0.20716341,-38.99,-64.4,-141.89,27,162.0,3.654094
1784070799093,-0.3186754,1.483573,0.103947714,-30.24,-66.36,-114.66,27,162.0,3.654094
1784070799093,-0.308183,1.2485926,0.14274509,-57.89,-70.35,-79.03,27,162.0,3.654094
1784070799109,-0.2157037,1.0877908,0.21765578,-43.26,-72.45,-40.88,28,168.0,3.654094
1784070799109,-0.22595207,1.0870588,0.17227016,-16.66,-78.96,-7.0,28,168.0,3.654094
1784070799109,-0.16568191,1.1351285,0.21960786,-23.59,-89.18,17.29,28,168.0,3.654094
1784070799109,-0.06246623,1.0494815,0.24913289,-35.420002,-97.02,32.06,28,168.0,3.654094
1784070799109,0.03586928,1.0389892,0.27572984,-43.68,-102.83,38.43,28,168.0,3.654094
1784070799109,0.048557736,0.97652286,0.32453158,-42.77,-110.18,34.16,28,168.0,3.654094
1784070799109,0.073934644,0.93260133,0.2911024,-31.29,-114.66,22.82,28,168.0,3.654094
1784070799109,0.053193897,0.9003922,0.22961222,-24.22,-118.3,9.66,28,168.0,3.654094
1784070799139,0.021228759,0.8079129,0.20325926,-21.0,-120.75,-2.03,28,168.0,3.654094
1784070799139,-0.008540305,0.76594335,0.11639216,-16.17,-122.57,-11.69,28,168.0,3.654094
1784070799139,-0.012932462,0.7208018,0.098091505,-15.82,-124.18,-21.210001,28,168.0,3.654094
1784070799139,0.010980392,0.71884966,0.10858388,-18.41,-125.23,-30.31,28,168.0,3.654094
1784070799139,0.061246186,0.6883486,0.12908061,-21.0,-124.74,-37.52,28,168.0,3.654094
1784070799139,0.08369499,0.65565145,0.13322876,-22.33,-122.22,-42.14,28,168.0,3.654094
1784070799139,0.12005229,0.62027013,0.13591287,-21.77,-117.95,-43.82,28,168.0,3.654094
1784070799139,0.15762964,0.61490196,0.14250109,-21.42,-113.05,-43.61,28,168.0,3.654094
1784070799280,0.19520697,0.6312505,0.17519826,-16.94,-106.33,-42.63,28,168.0,3.654094
1784070799280,0.24108061,0.644671,0.19959912,-9.87,-100.24,-42.14,28,168.0,3.654094
1784070799280,0.25669715,0.69274074,0.224488,0.63,-90.090004,-41.79,28,168.0,3.654094
1784070799280,0.36308497,0.7859521,0.23180829,10.29,-87.64,-42.0,28,168.0,3.654094
1784070799280,0.34039217,0.89746404,0.25132897,17.15,-86.24,-42.420002,28,168.0,3.654094
1784070799280,0.33136383,0.9950675,0.2740218,16.03,-78.75,-44.170002,28,168.0,3.654094
1784070799280,0.32062745,1.06461,0.2859782,21.210001,-82.11,-45.5,28,168.0,3.654094
1784070799280,0.5224227,1.2202876,0.15055338,18.83,-78.82,-45.36,28,168.0,3.654094
1784070799293,0.27548584,1.1663617,0.24181265,19.67,-86.1,-44.73,28,168.0,3.654094
1784070799293,0.23083223,1.1192681,0.29598257,13.58,-88.55,-43.75,29,174.0,3.654094
1784070799293,0.21643573,1.091939,0.2742658,6.3,-88.27,-43.19,29,174.0,3.654094
1784070799293,0.21521568,1.0707103,0.27182573,-1.33,-88.27,-43.12,29,174.0,3.654094
1784070799293,0.18617864,1.0233725,0.2632854,-7.77,-87.36,-43.54,29,174.0,3.654094
1784070799293,0.16470587,0.9955556,0.252305,-9.59,-86.03,-43.61,29,174.0,3.654094
1784070799293,0.15299346,0.97237474,0.2571852,-8.61,-84.14,-43.19,29,174.0,3.654094
1784070799293,0.13030066,0.94284964,0.24571678,-6.86,-82.67,-43.4,29,174.0,3.654094
1784070799326,0.11688017,0.924061,0.24181265,-4.83,-82.67,-44.45,29,174.0,3.654094
1784070799326,0.10419172,0.90527236,0.2571852,-1.4,-82.39,-45.99,29,174.0,3.654094
1784070799326,0.087843135,0.89746404,0.2466928,1.6800001,-81.55,-48.16,29,174.0,3.654094
1784070799326,0.09491939,0.8901438,0.21936384,5.32,-81.83,-50.68,29,174.0,3.654094
1784070799326,0.098091505,0.87574726,0.223756,7.28,-81.62,-52.57,29,174.0,3.654094
1784070799326,0.11517211,0.8847756,0.20545535,9.38,-80.15,-53.69,29,174.0,3.654094
1784070799326,0.1371329,0.88623965,0.17812636,11.27,-78.82,-54.53,29,174.0,3.654094
1784070799326,0.32453158,1.2295599,-0.061490197,11.06,-77.35,-54.81,29,174.0,3.654094
1784070799767,0.18056644,0.9448017,0.13200872,16.8,-79.1,-55.37,30,180.0,3.654094
1784070799767,0.16690196,0.93430936,0.17178214,13.93,-77.07,-55.44,30,180.0,3.654094
1784070799767,0.35747278,1.1082876,-0.033429194,10.43,-73.92,-54.53,30,180.0,3.654094
1784070799767,0.20765142,0.9784749,0.103947714,13.3,-75.39,-54.6,30,180.0,3.654094
1784070799767,0.1905708,0.953342,0.17739433,12.46,-73.22,-53.9,30,180.0,3.654094
1784070799767,0.18300654,0.951878,0.167878,12.39,-70.77,-52.57,30,180.0,3.654094
1784070799767,0.13444881,0.9306493,0.22155991,12.04,-66.99,-51.31,30,180.0,3.654094
1784070799767,0.21667975,0.95261,0.23620042,12.74,-70.840004,-49.28,30,180.0,3.654094
1784070800038,0.19081481,0.95602614,0.24010459,15.75,-72.38,-47.11,30,180.0,3.654094
1784070800038,0.15884967,0.9355294,0.23693246,18.55,-74.13,-44.8,30,180.0,3.654094
1784070800038,0.15445751,0.9208889,0.23205228,19.74,-77.14,-42.35,30,180.0,3.654094
1784070800038,0.14128104,0.9082004,0.2601133,19.81,-81.55,-39.9,30,180.0,3.654094
1784070800038,0.13518083,0.90478426,0.26962963,20.02,-86.94,-37.45,30,180.0,3.654094
1784070800038,0.17495424,0.92650104,0.23156427,18.69,-92.47,-34.58,30,180.0,3.654094
1784070800038,0.10589978,0.97798693,0.20691939,19.39,-98.42,-30.8,30,180.0,3.654094
1784070800038,0.15738562,0.9487059,0.16641395,29.26,-103.67,-26.04,30,180.0,3.654094
1784070800139,0.061246186,0.9457778,0.15811765,50.47,-107.87,-21.7,30,180.0,3.654094
1784070800139,0.025620917,0.8835556,0.27768192,69.51,-112.21,-19.32,30,180.0,3.654094
1784070800139,-0.0021960784,0.82694554,0.30647492,74.55,-118.090004,-18.76,30,180.0,3.654094
1784070800139,0.01146841,0.81157297,0.33477995,72.94,-126.91,-17.78,30,180.0,3.654094
1784070800139,0.0046361657,0.81547713,0.38772985,68.11,-137.76,-15.26,30,180.0,3.654094
1784070800139,-0.04148148,0.7315381,0.4035904,68.53,-144.97,-12.88,30,180.0,3.654094
1784070800139,-0.073446624,0.73519826,0.34356427,71.89,-145.32,-12.32,30,180.0,3.654094
1784070800139,-0.08979521,0.72104573,0.391878,73.85,-146.16,-14.21,30,180.0,3.654094
1784070800148,-0.09321132,0.8293856,0.4704488,72.66,-148.05,-17.78,30,180.0,3.654094
1784070800148,-0.17324619,1.0592419,0.5224227,70.840004,-147.14,-20.72,30,180.0,3.654094
1784070800148,-0.27841392,1.3342396,0.65687144,55.16,-146.37,-19.6,30,180.0,3.654094
1784070800148,-0.32428756,1.4633203,0.6136819,51.170002,-144.48,-16.45,30,180.0,3.654094
1784070800148,-0.33185184,1.5789804,0.5661002,48.58,-145.25,-14.0,30,180.0,3.654094
1784070800148,-0.33624402,1.6634073,0.5438954,40.53,-147.84,-17.5,30,180.0,3.654094
1784070800148,-0.3279477,1.7436863,0.5370632,27.09,-151.76,-28.42,30,180.0,3.654094
1784070800148,-0.22790413,2.0667539,0.5092462,40.46,-152.88,-44.03,30,180.0,3.654094
1784070800157,-0.10175163,2.3334553,0.34063616,53.06,-149.45,-65.17,30,180.0,3.654094
1784070800157,-0.0019520697,2.357124,0.3189194,59.010002,-140.84,-81.2,30,180.0,3.654094
1784070800157,-0.043921567,2.550135,0.23839653,47.6,-127.54,-87.71,30,180.0,3.654094
1784070800157,0.13615687,2.9454293,0.23400435,17.92,-98.42,-86.1,30,180.0,3.654094
1784070800157,0.33770806,2.6665273,0.11858824,-21.91,-72.73,-78.4,30,180.0,3.654094
1784070800157,0.29744664,2.601377,-0.001708061,-49.77,-51.73,-63.49,30,180.0,3.654094
1784070800157,0.34673637,2.322475,0.13225272,-52.920002,-33.04,-48.79,30,180.0,3.654094
1784070800157,0.26840958,2.1172636,-0.026352942,-91.14,-15.4,-35.91,30,180.0,3.654094
1784070800174,0.12542048,1.425499,0.06734641,-89.25,6.79,-15.190001,30,180.0,3.654094
1784070800174,0.07808279,1.2007668,0.14250109,-73.29,8.4,-12.11,30,180.0,3.654094
1784070800174,-0.0148845315,1.2144314,0.12395642,-52.57,2.59,-12.39,30,180.0,3.654094
1784070800174,-0.102727674,1.0028758,0.41603488,-63.21,-7.0,-9.66,31,186.0,3.654094
1784070800174,-0.26401743,0.8650109,0.48045316,-45.57,-16.17,-6.44,31,186.0,3.654094
1784070800174,-0.37943354,0.79742044,0.45263618,-27.79,-18.76,-6.16,31,186.0,3.654094
1784070800174,-0.32379955,0.6051416,0.49192157,-17.710001,-13.440001,-9.7300005,31,186.0,3.654094
1784070800174,-0.40700653,0.2942745,0.43799564,7.21,-14.42,-15.47,31,186.0,3.654094
1784070800189,-0.5268148,-0.100531586,0.19837908,27.65,-30.31,-12.11,31,186.0,3.654094
1784070800189,-0.5846449,-0.2632854,0.11273203,31.08,-37.45,-10.99,31,186.0,3.654094
1784070800189,-0.53779525,-0.42799127,0.057586055,30.87,-44.1,-9.45,31,186.0,3.654094
1784070800189,-0.44970804,-0.5260828,-0.039285403,34.79,-51.8,-4.62,31,186.0,3.654094
1784070800189,-0.30427885,-0.57342046,-0.07198257,37.45,-62.72,2.8700001,31,186.0,3.654094
1784070800189,-0.107363835,-0.39700216,-0.16983007,53.69,-75.88,11.9,31,186.0,3.654094
1784070800189,-0.042701527,-0.5182745,-0.15348148,51.31,-78.82,18.2,31,186.0,3.654094
1784070800189,0.018544663,-0.4623965,-0.120540306,60.41,-82.11,23.24,31,186.0,3.654094
1784070800267,0.09711547,-0.34893245,-0.05685403,64.47,-80.78,27.58,31,186.0,3.654094
1784070800267,0.14689325,-0.2608453,-0.047093682,61.18,-76.37,29.75,31,186.0,3.654094
1784070800267,0.17641829,-0.19227886,-0.03782135,58.24,-70.63,27.86,31,186.0,3.654094
1784070800267,0.20081916,-0.17837037,-0.053193897,60.13,-62.23,21.91,31,186.0,3.654094
1784070800267,0.19715904,-0.10614379,-0.0812549,68.18,-53.27,15.82,31,186.0,3.654094
1784070800267,0.21131155,-0.06929847,-0.12737255,72.17,-48.58,10.57,31,186.0,3.654094
1784070800267,0.23449236,0.052461874,-0.08467103,77.35,-46.83,5.11,31,186.0,3.654094
1784070800267,0.23156427,0.12005229,-0.13127668,66.78,-47.46,1.19,31,186.0,3.654094
1784070800288,0.32965577,0.15030937,-0.029281046,51.45,-47.25,-2.66,31,186.0,3.654094
1784070800288,0.43238342,0.21350762,0.4009063,63.07,-38.920002,-6.23,31,186.0,3.654094
1784070800288,0.31306317,0.26450545,1.426963,91.14,-0.21000001,-7.35,31,186.0,3.654094
1784070800288,-0.20130719,0.49436167,0.7454466,154.56,58.170002,-14.21,32,192.0,3.654094
1784070800288,0.587085,1.144401,0.39261004,170.45,74.55,-26.39,32,192.0,3.654094
1784070800288,2.778283,3.2289672,-0.78180397,346.01,20.23,-124.95,32,192.0,4.330855
1784070800288,1.9403572,1.7517387,-0.754231,79.17,16.87,-127.12,32,192.0,4.330855
1784070800288,0.32404357,2.1738737,0.23376034,-31.57,47.6,-103.25,32,192.0,4.330855
1784070800291,-0.308183,2.357124,-0.2547451,-74.41,52.15,-70.35,32,192.0,4.330855
1784070800291,-0.5387713,1.5828846,-0.07979085,-120.68,63.07,-45.36,32,192.0,4.330855
1784070800291,-0.6044096,1.3269194,1.6104575,-147.56,58.03,-28.91,32,192.0,4.330855
1784070800291,0.031477123,1.9242527,1.5711721,40.18,21.91,2.8,32,192.0,4.330855
1784070800291,-0.80205667,1.5616558,-0.6551634,86.17,34.16,27.3,32,192.0,4.330855
1784070800291,-0.63344663,1.3281394,-0.0922353,-22.89,6.16,30.24,32,192.0,4.330855
1784070800291,-0.503634,1.5079738,0.3604009,-9.38,31.15,32.97,32,192.0,4.330855
1784070800291,-0.43262747,1.7246536,0.38016558,-3.5,33.6,36.26,32,192.0,4.330855
1784070800294,-0.11444009,1.6951286,0.15982571,-39.9,28.49,31.92,32,192.0,4.330855
1784070800294,0.23668844,1.625098,0.22424401,-63.35,25.69,20.65,32,192.0,4.330855
1784070800294,0.33160785,1.5457952,0.24083659,-62.510002,31.92,12.46,32,192.0,4.330855
1784070800294,0.38553378,1.426719,0.2637734,-60.06,35.63,9.52,32,192.0,4.330855
1784070800294,0.34454033,1.2154074,0.2549891,-54.95,35.420002,7.7,32,192.0,4.330855
1784070800294,0.23156427,1.1261002,0.27304575,-53.13,35.14,4.69,33,198.0,4.330855
1784070800294,0.07027451,0.9857952,0.32379955,-49.0,33.25,0.42000002,33,198.0,4.330855
1784070800294,-0.10199564,0.9201569,0.27011764,-43.19,30.66,-2.31,33,198.0,4.330855
1784070800304,-0.22790413,0.8769674,0.27377778,-41.58,27.09,-0.63,33,198.0,4.330855
1784070800304,-0.24522875,0.8079129,0.28500217,-40.04,22.26,5.81,33,198.0,4.330855
1784070800304,-0.18422659,0.7793639,0.27865794,-38.15,18.55,14.7,33,198.0,4.330855
1784070800304,-0.124688454,0.7671634,0.29573858,-35.63,15.54,22.47,33,198.0,4.330855
1784070800304,-0.09199129,0.7549629,0.29549456,-35.35,12.39,28.0,33,198.0,4.330855
1784070800304,-0.05343791,0.74642265,0.2830501,-34.79,10.01,31.57,33,198.0,4.330855
1784070800304,-0.03782135,0.71494555,0.2908584,-34.51,7.98,34.02,33,198.0,4.330855
1784070800304,-0.03196514,0.68054026,0.2937865,-31.29,6.79,35.63,33,198.0,4.330855
1784070800348,-0.0148845315,0.6549194,0.2735338,-28.77,6.86,36.05,33,198.0,4.330855
1784070800348,0.0070762527,0.6239303,0.27328977,-26.880001,8.12,34.86,33,198.0,4.330855
1784070800348,0.019764706,0.59269714,0.2774379,-23.38,10.64,32.48,33,198.0,4.330855
1784070800348,0.037333332,0.56707627,0.27694988,-16.24,14.35,28.14,33,198.0,4.330855
1784070800348,0.09125926,0.56707627,0.252061,-6.86,20.16,22.4,33,198.0,4.330855
1784070800348,0.1625098,0.5817168,0.3250196,4.2,23.73,15.96,33,198.0,4.330855
1784070800348,0.15055338,0.62954247,0.29793465,6.3,24.85,10.15,33,198.0,4.330855
1784070800348,0.121272326,0.6861525,0.2715817,9.17,28.210001,5.81,33,198.0,4.330855
1784070800399,0.10955991,0.73178214,0.29281047,10.43,33.18,2.1,33,198.0,4.330855
1784070800399,0.10589978,0.7591111,0.32599562,9.87,36.19,-1.47,33,198.0,4.330855
1784070800399,0.10321569,0.78888017,0.32892373,12.11,36.96,-4.2,33,198.0,4.330855
1784070800399,0.087355115,0.84622216,0.307939,14.84,37.94,-5.81,33,198.0,4.330855
1784070800399,0.0812549,0.8857516,0.279878,15.4,39.97,-6.02,33,198.0,4.330855
1784070800399,0.08247495,0.90844446,0.2996427,14.28,41.02,-5.25,33,198.0,4.330855
1784070800399,0.07369063,0.9338214,0.2859782,11.06,42.35,-3.22,33,198.0,4.330855
1784070800399,0.09345534,0.94016564,0.2857342,9.7300005,44.8,-0.77,33,198.0,4.330855
1784070800483,0.11980827,0.92552507,0.30013072,14.07,48.58,0.49,33,198.0,4.330855
1784070800483,0.08613508,1.0023878,0.2964706,15.190001,52.29,2.1,33,198.0,4.330855
1784070800483,0.06661438,1.008244,0.3211155,7.4900002,54.25,4.41,33,198.0,4.330855
1784070800483,0.064906314,1.0065359,0.38821787,0.0,54.25,5.6,33,198.0,4.330855
1784070800483,0.07247059,0.99213946,0.43653157,-5.95,52.78,5.25,33,198.0,4.330855
1784070800483,0.11517211,0.99335945,0.4787451,-7.63,50.12,4.62,33,198.0,4.330855
1784070800483,0.13347277,1.0192244,0.5004619,-9.38,45.15,5.39,33,198.0,4.330855
1784070800483,0.044165578,1.0255686,0.45776036,-7.63,40.74,7.28,33,198.0,4.330855
1784070800798,-0.08589107,1.0089761,0.41383877,-3.71,37.38,8.68,33,198.0,4.330855
1784070800798,-0.20569934,0.980915,0.38699782,-7.63,35.28,10.57,33,198.0,4.330855
1784070800798,-0.2686536,0.95114595,0.3560087,-20.3,30.87,13.2300005,33,198.0,4.330855
1784070800798,-0.23986056,0.8881917,0.3472244,-32.2,29.960001,16.17,33,198.0,4.330855
1784070800798,-0.19642702,0.84402615,0.2937865,-31.64,32.41,18.06,33,198.0,4.330855
1784070800798,-0.21033551,0.76545537,0.29793465,-26.32,32.83,17.99,33,198.0,4.330855
1784070800798,-0.17544226,0.7044532,0.30013072,-25.69,33.6,16.17,33,198.0,4.330855
1784070800798,-0.108339876,0.66272765,0.2632854,-21.84,36.47,12.32,33,198.0,4.330855
1784070801067,-0.076374725,0.6673638,0.25742918,-12.53,36.75,8.05,33,198.0,4.330855
1784070801067,-0.09467538,0.67956424,0.22546406,-2.94,34.79,5.11,33,198.0,4.330855
1784070801067,-0.13225272,0.7144575,0.21179956,6.65,32.69,4.06,33,198.0,4.330855
1784070801067,-0.15982571,0.73910236,0.22863616,14.9800005,30.52,5.18,33,198.0,4.330855
1784070801067,-0.19398694,0.7908322,0.22204792,22.89,28.14,6.86,33,198.0,4.330855
1784070801067,-0.22351198,0.79912853,0.2154597,28.0,23.87,8.26,33,198.0,4.330855
1784070801067,-0.23449236,0.8079129,0.20618735,29.82,19.04,9.03,33,198.0,4.330855
1784070801067,-0.2742658,0.81474507,0.20252723,31.15,14.21,8.96,33,198.0,4.330855
1784070801429,-0.33136383,0.81157297,0.18520261,31.08,11.34,8.61,33,198.0,4.330855
1784070801429,-0.33673203,0.79351634,0.17300218,30.8,11.2,8.26,33,198.0,4.330855
1784070801429,-0.3164793,0.7874161,0.15201743,30.59,12.18,7.4900002,33,198.0,4.330855
1784070801429,-0.280366,0.79620045,0.1595817,31.43,12.18,6.02,33,198.0,4.330855
1784070801429,-0.21765578,0.8088889,0.20911546,34.58,10.71,3.92,33,198.0,4.330855
1784070801429,-0.18105447,0.86110675,0.25669715,41.23,7.84,1.12,33,198.0,4.330855
1784070801429,-0.17471023,0.93577343,0.27938998,49.0,3.64,-3.08,33,198.0,4.330855
1784070801429,-0.17422222,1.0455774,0.28256208,58.24,-0.28,-7.7,33,198.0,4.330855
1784070801609,-0.19959912,1.174658,0.28500217,66.36,-3.22,-12.39,33,198.0,4.330855
1784070801609,-0.21911982,1.3666928,0.28744227,71.05,-3.99,-16.1,33,198.0,4.330855
1784070801609,-0.24156862,1.6063093,0.3023268,79.1,-0.91,-19.53,33,198.0,4.330855
1784070801609,-0.2686536,1.8593464,0.2937865,87.99,3.78,-22.12,33,198.0,4.330855
1784070801609,-0.24815686,2.1665535,0.19813508,36.61,7.28,-16.73,33,198.0,4.330855
1784070801609,-0.25425708,2.1218998,0.30159476,60.13,12.04,-17.85,33,198.0,4.330855
1784070801609,-0.27255774,2.381525,0.19984314,31.64,11.62,-13.16,33,198.0,4.330855
1784070801609,-0.2937865,2.1719215,0.44848803,12.74,10.08,-11.97,33,198.0,4.330855
1784070801793,-0.3806536,2.1724095,0.47679305,-10.22,5.67,-8.68,33,198.0,4.330855
1784070801793,-0.45239213,2.1138475,0.5292549,-29.26,-0.07,-3.3600001,33,198.0,4.330855
1784070801793,-0.49997383,2.022344,0.55316776,-44.1,-6.44,0.42000002,33,198.0,4.330855
1784070801793,-0.5453595,1.8959477,0.57342046,-57.82,-14.0,1.4,33,198.0,4.330855
1784070801793,-0.57586056,1.7490544,0.5395033,-77.98,-22.33,-0.21000001,33,198.0,4.330855
1784070801793,-0.5973333,1.5311546,0.4704488,-98.28,-30.24,-4.2,33,198.0,4.330855
1784070801793,-0.5797647,1.3086188,0.40237036,-119.98,-35.84,-9.59,33,198.0,4.330855
1784070801793,-0.4897255,1.0870588,0.3389281,-137.55,-43.4,-14.7,33,198.0,4.330855
1784070802062,-0.38187364,0.90307623,0.21741176,-146.09,-47.46,-18.06,34,204.0,4.330855
1784070802062,-0.29232246,0.75227886,0.13444881,-137.2,-47.25,-19.74,34,204.0,4.330855
1784070802062,-0.21472767,0.71543354,0.052217867,-109.2,-44.52,-22.19,34,204.0,4.330855
1784070802062,-0.14494118,0.21911982,0.28158605,-92.33,-34.02,-23.52,34,204.0,4.330855
1784070802062,-0.026352942,0.4338475,0.10150763,-50.33,-29.4,-23.52,34,204.0,4.330855
1784070802062,-0.039773423,0.18178649,0.14982136,-14.63,-27.72,-22.75,34,204.0,4.330855
1784070802062,0.039041396,-0.017812636,0.13176471,7.77,-26.460001,-20.72,34,204.0,4.330855
1784070802062,0.075886704,0.0053681917,0.06344226,29.19,-25.76,-17.78,34,204.0,4.330855
1784070802242,0.18910675,-0.5177865,0.011712418,29.47,-23.03,-17.92,34,204.0,4.330855
1784070802242,0.22302397,-0.58074075,-0.057586055,-2.1,-19.39,-16.45,34,204.0,4.330855
1784070802242,0.23034422,-0.73178214,-0.09296732,-34.86,-17.64,-11.2,34,204.0,4.330855
1784070802242,0.13396078,-0.7364183,-0.19545099,-50.96,-15.26,-2.8700001,34,204.0,4.330855
1784070802242,0.067590415,-0.69615686,-0.23717648,-42.07,-11.27,4.55,34,204.0,4.330855
1784070802242,0.06246623,-0.6224662,-0.2496209,-19.67,-4.06,9.7300005,34,204.0,4.330855
1784070802242,0.053925924,-0.4031024,-0.1568976,0.21000001,-0.63,11.97,34,204.0,4.330855
1784070802242,0.07247059,-0.17837037,0.0036601308,25.06,6.86,11.55,34,204.0,4.330855
1784070802266,0.15323746,0.10687582,0.09662745,50.4,10.57,3.78,34,204.0,4.330855
1784070802266,0.14786929,0.16616993,0.114196084,43.47,11.69,1.33,34,204.0,4.330855
1784070802266,0.1259085,0.2828061,0.10345969,35.63,22.68,0.91,34,204.0,4.330855
1784070802266,0.1822745,0.19398694,0.10126361,16.8,17.64,3.22,34,204.0,4.330855
1784070802266,0.16446187,0.167878,0.13835293,12.6,13.79,5.81,34,204.0,4.330855
1784070802266,0.13420479,0.16861002,0.11736819,13.65,12.81,9.52,34,204.0,4.330855
1784070802266,0.09979956,0.17105012,0.11126798,8.4,10.57,13.58,34,204.0,4.330855
1784070802266,0.083939,0.1876427,0.120540306,-0.7,7.42,16.87,34,204.0,4.330855
1784070802274,0.063686274,0.2213159,0.11517211,-20.51,3.01,21.14,34,204.0,4.330855
1784070802274,0.110779956,0.24083659,0.22546406,-27.58,2.8,23.38,34,204.0,4.330855
1784070802274,0.19227886,0.2462048,0.5212026,-24.57,-2.17,22.47,34,204.0,4.330855
1784070802274,0.12712854,0.28646624,0.67077994,-13.16,-1.6800001,18.13,34,204.0,4.330855
1784070802274,0.044165578,0.32721567,0.9282091,2.45,5.11,11.69,34,204.0,4.330855
1784070802274,-0.21960786,0.57024837,1.0460653,38.08,19.67,-2.17,34,204.0,4.330855
1784070802274,-0.4501961,0.67419606,0.052461874,36.05,40.74,-5.67,35,210.0,4.330855
1784070802274,-0.33014378,1.2241917,-0.49948585,-57.12,8.33,-22.26,35,210.0,4.330855
1784070802335,-0.9125926,3.1264837,-0.30452287,548.94,70.35,-100.24,35,210.0,4.330855
1784070802335,-0.8808715,5.769586,-1.5096819,-102.27,-26.880001,-10.08,35,210.0,6.028532
1784070802335,-0.3389281,2.07139,1.5211504,-414.68,-104.16,36.68,35,210.0,6.028532
1784070802335,-0.64735514,3.2055423,2.1938825,-14.7,-61.25,14.35,35,210.0,6.028532
1784070802335,-0.5826928,2.8434336,-1.3725489,41.79,-13.65,-0.63,35,210.0,6.028532
1784070802335,-0.1568976,2.3463879,-1.2568889,-44.170002,-43.26,-27.37,35,210.0,6.028532
1784070802335,0.37626144,2.3044183,0.42725924,-153.86,-56.77,-31.15,35,210.0,6.028532
1784070802335,0.41627887,2.0118518,0.22888018,-55.16,-24.5,-22.61,35,210.0,6.028532
1784070802347,0.37894553,1.6065533,0.6322266,-62.23,-19.460001,2.66,35,210.0,6.028532
1784070802347,0.20399128,1.3903617,0.5980654,-12.95,-7.4900002,9.1,35,210.0,6.028532
1784070802347,0.12517647,1.4540479,0.43750766,9.1,-2.8,17.22,35,210.0,6.028532
1784070802347,0.09101525,1.4152505,0.5731765,-23.66,-5.88,24.15,35,210.0,6.028532
1784070802347,0.046361655,1.1966188,0.56878436,-56.91,-13.16,28.35,35,210.0,6.028532
1784070802347,-0.05929412,1.1424488,0.3835817,-68.88,-21.210001,29.75,35,210.0,6.028532
1784070802347,-0.19349891,0.95871025,0.32697168,-67.9,-28.84,27.93,36,216.0,6.028532
1784070802347,-0.3052549,0.77497166,0.2715817,-60.9,-19.53,24.22,36,216.0,6.028532
1784070802356,-0.3889499,0.7525229,0.0,-66.29,-14.42,14.91,36,216.0,6.028532
1784070802356,-0.3806536,0.60416555,0.06344226,-75.81,-9.45,13.37,36,216.0,6.028532
1784070802356,-0.31745535,0.46142048,-0.0046361657,-76.44,-4.27,10.78,36,216.0,6.028532
1784070802356,-0.21692374,0.35210457,-0.0012200436,-79.87,1.05,5.88,36,216.0,6.028532
1784070802356,-0.074666664,0.2967146,0.09687146,-70.840004,4.76,0.98,36,216.0,6.028532
1784070802356,-0.004148148,0.5104662,0.09199129,-58.94,10.15,-0.77,36,216.0,6.028532
1784070802356,0.020496732,0.50265795,0.024888888,-29.68,14.63,0.49,36,216.0,6.028532
1784070802356,0.044653594,0.37089324,0.023180827,-38.08,17.29,4.2,36,216.0,6.028532
1784070802364,0.08076689,0.2735338,-0.0475817,-27.37,17.36,9.94,36,216.0,6.028532
1784070802364,0.08418301,0.23498039,-0.04026144,-20.37,16.73,12.74,36,216.0,6.028532
1784070802364,0.07198257,0.23912853,-0.012200436,-17.36,16.66,15.54,36,216.0,6.028532
1784070802364,0.04611765,0.2554771,0.025864923,-14.9800005,16.66,17.710001,36,216.0,6.028532
1784070802364,0.019520698,0.2352244,0.085403055,-8.75,16.1,19.74,36,216.0,6.028532
1784070802364,-0.044653594,0.25035295,0.1625098,-1.05,17.08,22.47,36,216.0,6.028532
1784070802364,-0.028793028,0.14982136,0.5995294,7.14,16.94,26.95,36,216.0,6.028532
1784070802364,-0.09833551,0.18007843,1.0894989,63.28,31.29,30.17,36,216.0,6.028532
1784070802367,-0.63759476,0.41432682,0.6751721,100.45,61.74,31.22,36,216.0,6.028532
1784070802367,-0.13835293,0.7703355,0.0029281045,73.22,45.57,25.34,36,216.0,6.028532
1784070802367,0.75301087,1.5904489,0.8088889,40.39,42.49,6.65,36,216.0,6.028532
1784070802367,0.17056209,2.8448977,0.88453156,185.92,84.91,-60.2,36,216.0,6.028532
1784070802367,0.07149455,2.776087,-0.53364706,178.92,59.29,-81.41,36,216.0,6.028532
1784070802367,-0.14250109,1.8620306,0.37113726,-18.83,19.95,-72.87,36,216.0,6.028532
1784070802367,-0.44409585,1.5140741,0.5558518,-60.83,12.88,-59.64,36,216.0,6.028532
1784070802367,-0.4680087,1.2295599,0.11810021,-70.77,3.57,-45.71,36,216.0,6.028532
1784070802379,-0.30867103,0.866719,0.2913464,-2.94,10.29,-22.19,37,222.0,6.028532
1784070802379,-0.20301525,0.75374293,0.24522875,5.81,15.12,-5.39,37,222.0,6.028532
1784070802379,-0.07320262,0.8442701,0.19203486,10.08,15.26,8.54,37,222.0,6.028532
1784070802379,0.073934644,0.84890634,0.27084967,1.75,12.18,18.34,37,222.0,6.028532
1784070802379,0.1649499,0.88867974,0.2884183,5.11,9.66,22.960001,37,222.0,6.028532
1784070802379,0.1820305,1.0128802,0.29769063,3.22,6.3,22.82,37,222.0,6.028532
1784070802379,0.13640088,1.0399652,0.3223355,9.8,3.5,19.04,37,222.0,6.028532
1784070802379,0.10980393,1.0182483,0.29525056,16.66,0.77,13.09,37,222.0,6.028532
1784070802395,0.08979521,0.89697605,0.25450107,11.2,-8.19,4.83,37,222.0,6.028532
1784070802395,0.08027887,0.8630588,0.2352244,13.37,-10.29,3.57,37,222.0,6.028532
1784070802395,0.10785185,0.89282787,0.21350762,16.24,-10.43,4.27,37,222.0,6.028532
1784070802395,0.13640088,0.91064054,0.23132028,21.28,-8.68,4.9,37,222.0,6.028532
1784070802395,0.117124185,0.9738388,0.25620914,23.31,-6.09,4.34,37,222.0,6.028532
1784070802395,0.031477123,0.93894553,0.31989545,25.76,-3.08,3.85,37,222.0,6.028532
1784070802395,-0.024156863,1.0036077,0.25962526,44.03,-2.1,3.29,37,222.0,6.028532
1784070802395,-0.033185184,0.92332894,0.31843138,52.85,-3.29,3.78,37,222.0,6.028532
1784070802398,-0.12566449,0.95261,0.24840085,48.65,-8.47,8.47,37,222.0,6.028532
1784070802398,-0.13420479,0.82255334,0.31428322,43.33,-14.07,9.38,37,222.0,6.028532
1784070802398,-0.16324182,1.2654291,0.038797386,31.22,-16.31,10.57,37,222.0,6.028532
1784070802398,-0.09906754,1.0470413,0.16446187,36.54,-19.460001,7.98,38,228.0,6.028532
1784070802398,-0.09491939,0.8820915,0.19862309,26.53,-23.03,5.11,38,228.0,6.028532
1784070802398,-0.07930283,0.98018295,0.13566884,21.07,-24.92,3.57,38,228.0,6.028532
1784070802398,-0.038309366,0.9621264,0.13981698,-2.1,-30.1,4.69,38,228.0,6.028532
1784070802398,-0.0021960784,0.953098,0.13444881,12.88,-29.05,6.23,38,228.0,6.028532
1784070802421,-0.011956427,0.9182047,0.12224837,3.22,-33.53,7.84,38,228.0,6.028532
1784070802421,-0.025132896,0.97896296,0.006832244,6.23,-35.56,7.77,38,228.0,6.028532
1784070802421,-0.004392157,0.88965577,0.12298039,15.47,-36.82,6.3,38,228.0,6.028532
1784070802421,-0.023424836,0.9130806,0.03196514,16.31,-38.01,3.64,38,228.0,6.028532
1784070802421,-0.0048801745,0.7107974,0.117124185,-24.43,-47.46,-0.14,38,228.0,6.028532
1784070802421,-0.035137255,0.9394335,0.026840959,1.54,-44.59,-3.3600001,38,228.0,6.028532
1784070802421,-0.079058826,1.0343529,-0.10711983,-9.94,-51.73,-8.26,38,228.0,6.028532
1784070802421,-0.07417865,0.9477298,0.032697167,4.48,-51.87,-11.55,38,228.0,6.028532
1784070802426,-0.086623095,0.90600437,0.06100218,10.36,-58.1,-19.39,38,228.0,6.028532
1784070802426,-0.08174292,0.9196688,0.009028322,6.09,-60.83,-23.45,38,228.0,6.028532
1784070802426,0.012200436,0.70762527,0.17056209,-11.4800005,-68.6,-27.65,38,228.0,6.028532
1784070802426,-0.012200436,0.8518345,0.06978649,0.7,-68.25,-31.710001,38,228.0,6.028532
1784070802426,0.02074074,0.88331157,-0.015616558,-21.56,-77.28,-36.68,38,228.0,6.028532
1784070802426,0.050753813,0.9191808,0.09906754,2.03,-70.840004,-38.01,38,228.0,6.028532
1784070802426,0.073934644,0.9496819,0.104435734,10.01,-66.57,-38.78,38,228.0,6.028532
1784070802426,0.103947714,1.0123922,0.1459172,7.0,-63.49,-38.85,38,228.0,6.028532
1784070802442,0.20447929,1.1404967,0.15616558,-5.53,-55.23,-35.56,38,228.0,6.028532
1784070802442,0.28695425,1.176854,0.1456732,-13.93,-53.97,-30.59,38,228.0,6.028532
1784070802442,0.3223355,1.204427,0.16446187,-19.18,-55.02,-22.82,38,228.0,6.028532
1784070802442,0.35625273,1.256401,0.14664924,-19.32,-55.44,-12.46,38,228.0,6.028532
1784070802442,0.38968194,1.3125229,0.14689325,-18.69,-55.23,-0.91,38,228.0,6.028532
1784070802442,0.46996078,1.3657168,0.10541177,-19.460001,-58.87,10.22,38,228.0,6.028532
1784070802442,0.5492636,1.3893856,0.12346841,-19.81,-63.84,20.93,38,228.0,6.028532
1784070802442,0.37235728,1.4472157,0.27036166,-18.55,-68.32,28.28,38,228.0,6.028532
1784070802446,0.39993027,1.370353,0.32941175,120.33,-87.08,22.33,38,228.0,6.028532
1784070802446,-0.08613508,1.0441133,0.33770806,166.11,-92.26,13.65,39,234.0,6.028532
1784070802446,-0.42945534,1.8132287,0.102239646,186.27,-79.87,9.38,39,234.0,6.028532
1784070802446,-0.29207844,1.989647,0.09955555,123.83,-71.47,25.34,39,234.0,6.028532
1784070802446,-0.013664488,1.736122,0.12786056,40.46,-64.96,38.43,39,234.0,6.028532
1784070802446,-0.08881917,1.5094379,0.07783878,-9.7300005,-52.85,37.170002,39,234.0,6.028532
1784070802446,-0.11688017,1.4477037,0.18178649,-43.26,-40.32,30.380001,39,234.0,6.028532
1784070802446,0.30623093,1.5526274,0.29329848,-67.06,-36.82,23.59,39,234.0,6.028532
1784070802459,0.47191286,1.4062222,0.39334205,-84.77,-34.58,13.79,39,234.0,6.028532
1784070802459,0.33429193,1.262501,0.42921135,-86.45,-28.07,1.19,39,234.0,6.028532
1784070802459,0.2608453,1.1629455,0.4645926,-87.36,-20.86,-10.01,39,234.0,6.028532
1784070802459,0.27865794,1.0446013,0.4968017,-84.63,-14.9800005,-20.16,40,240.0,6.028532
1784070802459,0.14323312,0.87257516,0.5241307,-73.43,-10.85,-28.84,40,240.0,6.028532
1784070802459,0.034893245,0.8203573,0.43872768,-55.79,-7.98,-32.97,40,240.0,6.028532
1784070802459,-0.016104575,0.46337253,0.5546318,-44.8,-7.7,-32.55,40,240.0,6.028532
1784070802459,-0.20472331,0.587573,0.38455772,-39.2,-7.21,-28.42,40,240.0,6.028532
1784070802463,-0.22766013,0.55804795,0.34112418,-28.28,-7.14,-23.1,40,240.0,6.028532
1784070802463,-0.24913289,0.70103705,0.21619171,-11.97,-8.19,-17.64,40,240.0,6.028532
1784070802463,-0.22766013,0.56122005,0.31843138,-14.7,-11.34,-11.9,40,240.0,6.028532
1784070802463,-0.22741611,0.6273464,0.26401743,-14.56,-13.79,-8.54,40,240.0,6.028532
1784070802463,-0.21082354,0.9011242,0.17007408,-0.14,-14.0,-7.91,40,240.0,6.028532
1784070802463,-0.17056209,0.74715465,0.2884183,-12.39,-18.55,-8.47,40,240.0,6.028532
1784070802463,-0.1315207,0.6566275,0.3525926,-10.36,-21.98,-8.96,40,240.0,6.028532
1784070802463,-0.16177778,0.784,0.2630414,-5.81,-24.29,-8.19,40,240.0,6.028532
1784070802476,-0.14884531,0.8230413,0.26962963,-1.82,-25.2,-7.14,40,240.0,6.028532
1784070802476,-0.06393028,0.6915207,0.29891068,15.47,-24.43,-7.4900002,40,240.0,6.028532
1784070802476,-0.11517211,0.9404096,0.27841392,20.23,-23.66,-9.59,40,240.0,6.028532
1784070802476,-0.07173856,0.96383446,0.29159042,25.9,-21.42,-11.9,40,240.0,6.028532
1784070802476,-0.024156863,0.9582222,0.32306755,27.72,-17.64,-13.440001,40,240.0,6.028532
1784070802476,-0.001708061,1.0021439,0.3137952,26.25,-12.74,-13.86,40,240.0,6.028532
1784070802476,0.056122,0.99165136,0.27646187,24.78,-6.58,-13.65,40,240.0,6.028532
1784070802476,0.06954248,0.9694466,0.3213595,23.24,-3.71,-13.65,40,240.0,6.028532
1784070802479,0.10955991,1.0311809,0.27621785,25.41,-0.56,-15.4,40,240.0,6.028532
1784070802479,0.068810456,0.94406974,0.3250196,18.06,3.5,-17.15,40,240.0,6.028532
1784070802479,0.06661438,0.9125926,0.3052549,12.46,4.69,-16.17,40,240.0,6.028532
1784070802479,0.04953377,0.9296732,0.28158605,9.1,7.07,-15.05,40,240.0,6.028532
1784070802479,0.0046361657,0.9160087,0.27938998,5.6,8.4,-13.58,40,240.0,6.028532
1784070802479,-0.026108934,0.9042963,0.2857342,-1.82,9.66,-11.76,40,240.0,6.028532
1784070802479,-0.04928976,0.8916078,0.27694988,-5.39,10.36,-10.08,40,240.0,6.028532
1784070802479,-0.058562092,0.8901438,0.26255336,-7.14,10.08,-8.75,40,240.0,6.028532
1784070802515,-0.09101525,0.8842876,0.24547276,-10.57,9.7300005,-7.42,40,240.0,6.028532
1784070802515,-0.10760784,0.868915,0.24522875,-15.190001,9.7300005,-5.25,40,240.0,6.028532
1784070802515,-0.114196084,0.85110235,0.25084096,-20.79,10.29,-2.8700001,40,240.0,6.028532
1784070802515,-0.14518519,0.8452462,0.23571241,-25.69,10.43,-0.07,40,240.0,6.028532
1784070802515,-0.16031373,0.8306057,0.22839217,-28.56,11.13,3.01,40,240.0,6.028532
1784070802515,-0.15567756,0.77570367,0.23986056,-32.41,11.9,5.53,40,240.0,6.028532
1784070802515,-0.17471023,0.7515468,0.19349891,-32.06,14.28,6.44,40,240.0,6.028532
1784070802515,-0.1454292,0.7227538,0.24449673,-37.170002,12.25,8.33,40,240.0,6.028532
1784070802604,-0.15104139,0.68468845,0.23156427,-39.48,11.41,10.22,40,240.0,6.028532
1784070802604,-0.1459172,0.64735514,0.22668411,-38.22,11.13,11.41,40,240.0,6.028532
1784070802604,-0.11175599,0.5934292,0.20325926,-33.88,10.99,11.41,40,240.0,6.028532
1784070802604,-0.0868671,0.615878,0.18544662,-20.51,12.25,10.22,40,240.0,6.028532
1784070802604,-0.061490197,0.5824488,0.17885838,-30.87,11.27,9.24,40,240.0,6.028532
1784070802604,-0.05661002,0.5307189,0.13249673,-31.36,10.57,7.91,40,240.0,6.028532
1784070802604,-0.05661002,0.50827014,0.0951634,-24.43,10.99,6.58,40,240.0,6.028532
1784070802604,-0.09077124,0.532671,0.012932462,-24.22,11.62,5.11,40,240.0,6.028532
1784070802649,-0.15616558,0.5207146,-0.024888888,-28.0,10.99,5.81,40,240.0,6.028532
1784070802649,-0.20033115,0.5087582,-0.06271024,-28.210001,9.87,7.42,40,240.0,6.028532
1784070802649,-0.25084096,0.5160785,-0.12761655,-3.78,4.76,8.82,40,240.0,6.028532
1784070802649,-0.30379084,0.46020046,-0.1232244,1.47,6.93,10.15,40,240.0,6.028532
1784070802649,-0.335756,0.49606973,-0.17129412,23.52,4.9,10.22,40,240.0,6.028532
1784070802649,-0.32379955,0.5021699,-0.094187364,34.65,5.7400002,8.96,40,240.0,6.028532
1784070802649,-0.2322963,0.6656558,-0.11858824,60.55,12.46,2.24,40,240.0,6.028532
1784070802649,-0.10345969,0.6358867,-0.21643573,66.57,20.3,-6.58,40,240.0,6.028532
1784070802739,0.13200872,0.7256819,-0.38162962,72.52,20.02,-14.63,40,240.0,6.028532
1784070802739,0.16348584,0.6271024,0.1822745,69.79,31.15,-14.84,40,240.0,6.028532
1784070802739,-0.034893245,0.35649672,1.8652027,128.03,85.12,-6.23,40,240.0,6.028532
1784070802739,-0.31550327,0.9899433,1.9427973,202.37,146.86,-7.56,40,240.0,6.028532
1784070802739,0.34649238,1.9403572,0.38675383,277.76,162.19,-32.06,40,240.0,6.028532
1784070802739,2.1811938,2.0035555,-0.7810719,210.07,106.19,-59.29,40,240.0,6.028532
1784070802739,0.7222658,1.8747189,0.7115294,72.31,89.74,-68.67,40,240.0,6.028532
1784070802739,-0.040749453,1.6324183,0.4336035,18.34,53.83,-60.69,40,240.0,6.028532
1784070802915,-0.26767758,1.6360785,0.8242614,62.86,27.51,-54.95,40,240.0,6.028532
1784070802915,-0.6112418,1.9981873,0.8464662,91.91,26.25,-46.06,40,240.0,6.028532
1784070802915,-0.89819604,1.8671547,0.8513464,54.18,27.3,-30.59,40,240.0,6.028532
1784070802915,-0.5858649,1.7163572,0.73910236,18.9,17.85,-12.11,40,240.0,6.028532
1784070802915,-0.46556863,1.4662483,0.7586231,-7.07,13.86,3.92,40,240.0,6.028532
1784070802915,-0.3474684,1.4960175,0.7420305,-7.77,18.48,14.49,40,240.0,6.028532
1784070802915,-0.13859694,1.5926449,0.68322444,-4.13,24.92,19.95,40,240.0,6.028532
1784070802915,-0.012688453,1.6024052,0.69298476,-17.22,27.65,22.26,40,240.0,6.028532
1784070802925,0.05465795,1.3840175,0.6485751,-19.11,26.81,20.65,40,240.0,6.028532
1784070802925,0.076374725,1.3666928,0.56951636,-22.75,24.15,20.44,40,240.0,6.028532
1784070802925,0.08223093,1.2788496,0.5182745,-26.81,20.86,22.47,40,240.0,6.028532
1784070802925,0.08247495,1.2219956,0.48557734,-26.95,17.85,26.18,40,240.0,6.028532
1784070802925,0.070030496,1.1529412,0.45434424,-30.1,14.14,31.15,40,240.0,6.028532
1784070802925,0.08637909,1.0509455,0.43311545,-35.07,11.41,34.51,41,240.0,6.028532
1784070802925,0.042457517,1.0263007,0.37748146,-32.55,9.38,35.84,41,240.0,6.028532
1784070802925,0.032941177,0.9152767,0.391878,-39.06,7.77,36.33,41,240.0,6.028532
1784070802965,0.01146841,0.7866841,0.35649672,-38.78,8.19,36.12,41,240.0,6.028532
1784070802965,-0.024156863,0.7515468,0.2876863,-34.65,9.17,35.07,41,240.0,6.028532
1784070802965,-0.04587364,0.6629717,0.25303704,-31.43,10.22,34.44,41,240.0,6.028532
1784070802965,-0.05563399,0.6044096,0.2074074,-25.9,12.53,33.88,41,240.0,6.028532
1784070802965,-0.06685839,0.53535515,0.20545535,-21.63,14.7,32.9,41,240.0,6.028532
1784070802965,-0.07417865,0.49948585,0.17983443,-16.45,16.24,32.27,41,240.0,6.028532
1784070802965,-0.034893245,0.43921572,0.17105012,-9.94,16.31,31.36,41,240.0,6.028532
1784070802965,0.02074074,0.33917212,0.18837473,4.97,19.04,29.61,41,240.0,6.028532
1784070803098,-0.024400871,0.4035904,0.13274074,-3.43,13.79,28.7,41,240.0,6.028532
1784070803098,0.106387794,0.2381525,0.20569934,-7.98,11.13,27.23,41,240.0,6.028532
1784070803098,0.026840959,0.32477558,0.0868671,4.2,9.17,24.08,41,240.0,6.028532
1784070803098,0.053681917,0.30330282,0.13298476,7.28,9.45,20.09,41,240.0,6.028532
1784070803098,0.04343355,0.37699345,0.11736819,10.08,9.59,18.06,41,240.0,6.028532
1784070803098,0.042945534,0.37967756,0.1371329,7.7,7.4900002,17.43,41,240.0,6.028532
1784070803098,0.060026146,0.38040957,0.10858388,12.6,5.67,15.26,41,240.0,6.028532
1784070803098,0.06856645,0.3889499,0.12737255,14.42,3.64,12.74,41,240.0,6.028532
1784070803140,0.06515033,0.44458386,0.10980393,17.710001,1.96,9.59,41,240.0,6.028532
1784070803140,0.073934644,0.48533335,0.1146841,16.52,-0.14,5.81,41,240.0,6.028532
1784070803140,0.060026146,0.51071024,0.11151198,17.22,-1.61,1.4,41,240.0,6.028532
1784070803140,0.036845315,0.5541438,0.08027887,16.87,-2.66,-3.01,41,240.0,6.028532
1784070803140,0.012444444,0.6014815,0.06637037,14.9800005,-3.92,-7.35,41,240.0,6.028532
1784070803140,-0.011224401,0.6410109,0.02098475,13.37,-4.9,-11.97,41,240.0,6.028532
1784070803140,-0.03050109,0.6944488,-0.05099782,10.36,-6.09,-16.24,41,240.0,6.028532
1784070803140,-0.0019520697,0.7469107,-0.08808714,5.39,-8.26,-20.02,41,240.0,6.028532
1784070803189,0.039529413,0.7600872,-0.089551196,0.91,-11.62,-23.24,41,240.0,6.028532
1784070803189,0.097603485,0.76765144,-0.05514597,-1.75,-15.96,-26.04,41,240.0,6.028532
1784070803189,0.13640088,0.8064488,-0.019520698,-3.43,-20.16,-29.05,41,240.0,6.028532
1784070803189,0.14006099,0.81547713,-0.009760349,-4.69,-23.17,-31.64,41,240.0,6.028532
1784070803189,0.15177341,0.90185624,-0.035137255,2.17,-23.03,-33.74,41,240.0,6.028532
1784070803189,0.16202179,1.0101961,-0.040505446,5.67,-23.8,-34.93,41,240.0,6.028532
1784070803189,0.1371329,1.1126797,-0.040505446,8.54,-26.25,-35.56,41,240.0,6.028532
1784070803189,0.119564265,1.3098388,-0.08052288,25.62,-19.6,-35.77,41,240.0,6.028532
1784070803241,0.3604009,1.4301351,-0.07539869,54.46,-8.54,-35.0,41,240.0,6.028532
1784070803241,0.4716688,1.5789804,-0.19667102,73.85,-1.82,-30.8,41,240.0,6.028532
1784070803241,0.18373856,1.794684,-0.25059694,79.94,-6.58,-21.14,41,240.0,6.028532
1784070803241,-0.1820305,1.7280697,-0.25572112,60.34,-3.64,-3.57,41,240.0,6.028532
1784070803241,-0.2942745,1.5362788,0.34771243,40.81,-7.98,7.35,41,240.0,6.028532
1784070803241,0.074666664,1.4176906,1.1212201,24.64,-26.04,10.92,41,240.0,6.028532
1784070803241,0.38016558,1.7285577,0.94187367,57.96,-35.21,19.460001,41,240.0,6.028532
1784070803241,-0.02293682,1.9869629,0.73105013,102.62,-46.06,31.92,41,240.0,6.028532
1784070803368,-0.81084096,1.9266927,0.07027451,130.69,-29.54,39.76,41,240.0,6.028532
1784070803368,-1.0814466,1.9540218,0.23473638,46.48,-49.91,51.31,41,240.0,6.028532
1784070803368,-0.52705884,1.6192418,0.010980392,-34.51,-34.93,57.05,41,240.0,6.028532
1784070803368,-0.16177778,1.4711285,0.46996078,-45.08,-25.55,54.81,41,240.0,6.028532
1784070803368,0.11907625,1.5902047,0.62027013,-12.04,-10.71,50.47,41,240.0,6.028532
1784070803368,0.4599564,1.456976,0.62466234,-1.4,2.38,44.73,41,240.0,6.028532
1784070803368,0.49143356,1.2229717,0.6534553,-3.3600001,7.63,36.4,41,240.0,6.028532
1784070803368,0.41554683,0.8859956,0.57098037,-9.24,8.61,26.81,42,246.0,6.028532
1784070803453,0.3506405,0.7071372,0.53584313,-15.75,4.06,18.76,42,246.0,6.028532
1784070803453,0.23473638,0.70738125,0.48338124,-25.9,-3.22,12.6,42,246.0,6.028532
1784070803453,0.1285926,0.75447494,0.45800436,-33.74,-9.59,7.14,42,246.0,6.028532
1784070803453,-0.034893245,0.89355993,0.48313725,-41.93,-14.56,2.52,42,246.0,6.028532
1784070803453,-0.15982571,0.9748148,0.5185185,-35.77,-17.22,-0.35,42,246.0,6.028532
1784070803453,-0.28427014,1.0477735,0.43189543,-17.64,-18.27,-6.3,42,246.0,6.028532
1784070803453,-0.36576906,1.1314684,0.38431373,-12.11,-20.79,-13.65,42,246.0,6.028532
1784070803453,-0.33502397,1.1897866,0.3223355,-10.36,-24.22,-22.05,42,246.0,6.028532
1784070803475,-0.32331154,1.1068234,0.33014378,-18.2,-27.3,-30.87,43,251.99998,6.028532
1784070803475,-0.26938564,0.9618824,0.30574292,-27.79,-29.12,-37.45,43,251.99998,6.028532
1784070803475,-0.21619171,0.86793894,0.31843138,-29.05,-29.68,-40.04,43,251.99998,6.028532
1784070803475,-0.15640959,0.81938124,0.30354682,-25.9,-30.17,-38.85,43,251.99998,6.028532
1784070803475,-0.07173856,0.77228755,0.28109804,-22.19,-31.78,-36.47,43,251.99998,6.028532
1784070803475,-0.004148148,0.7656993,0.23595643,-13.72,-35.35,-33.53,43,251.99998,6.028532
1784070803475,-0.01146841,0.68420047,0.24278867,-15.68,-33.32,-29.89,43,251.99998,6.028532
1784070803475,0.017812636,0.64881915,0.23790848,-10.57,-33.46,-25.2,43,251.99998,6.028532
1784070803548,-0.058318082,0.47606102,0.30989107,-7.56,-33.11,-21.210001,43,251.99998,6.028532
1784070803548,0.018300654,0.6200262,0.21594772,-7.91,-31.01,-17.57,43,251.99998,6.028532
1784070803548,-0.010492375,0.5778126,0.21423966,-3.22,-30.8,-15.05,43,251.99998,6.028532
1784070803548,0.016104575,0.588549,0.1905708,-1.33,-30.94,-13.37,43,251.99998,6.028532
1784070803548,-7.320261E-4,0.5621961,0.21497166,2.52,-29.05,-13.09,43,251.99998,6.028532
1784070803548,-0.010980392,0.60416555,0.18544662,8.82,-28.07,-12.67,43,251.99998,6.028532
1784070803548,-0.023424836,0.6390588,0.17983443,8.05,-26.81,-12.46,43,251.99998,6.028532
1784070803548,-0.019520698,0.67566013,0.15470152,11.06,-24.710001,-12.74,43,251.99998,6.028532
1784070803638,-0.043677557,0.7112854,0.13176471,12.6,-20.79,-13.3,43,251.99998,6.028532
1784070803638,-0.037333332,0.72616994,0.11566014,12.6,-16.31,-13.58,43,251.99998,6.028532
1784070803638,-0.029769063,0.7678954,0.074666664,15.4,-10.64,-12.81,43,251.99998,6.028532
1784070803638,-0.008296296,0.7493508,0.08979521,9.94,-5.81,-11.55,43,251.99998,6.028532
1784070803638,-0.0019520697,0.7622832,0.061246186,9.66,-1.19,-9.45,43,251.99998,6.028532
1784070803638,0.019276688,0.7696035,0.054901965,8.12,3.71,-6.51,43,251.99998,6.028532
1784070803638,0.040749453,0.76935947,0.059782133,2.38,8.33,-2.66,43,251.99998,6.028532
1784070803638,0.039529413,0.7398344,0.037577342,-2.8700001,12.25,1.61,43,251.99998,6.028532
1784070803683,0.042457517,0.70738125,0.038553376,-7.28,15.26,5.6,43,251.99998,6.028532
1784070803683,0.034405228,0.6827364,-0.015616558,-9.59,16.1,9.17,43,251.99998,6.028532
1784070803683,-0.11688017,0.43287146,0.12786056,-9.8,15.68,10.5,43,251.99998,6.028532
1784070803683,-0.07783878,0.6549194,-0.04684967,-6.37,14.14,10.92,43,251.99998,6.028532
1784070803683,-0.09443137,0.6754161,-0.08515904,18.2,2.52,10.64,43,251.99998,6.028532
1784070803683,-0.13298476,0.6180741,-0.04611765,12.88,2.52,9.38,43,251.99998,6.028532
1784070803683,-0.15274945,0.70738125,-0.057098042,21.77,-2.52,8.96,43,251.99998,6.028532
1784070803683,-0.22888018,0.727878,-0.0065882355,23.17,-0.49,8.75,43,251.99998,6.028532
1784070803773,-0.19179085,0.91137254,-0.02830501,41.51,-7.07,8.68,43,251.99998,6.028532
1784070803773,-0.14860131,1.0199564,0.060270153,34.02,1.19,8.47,43,251.99998,6.028532
1784070803773,-0.008052288,1.2351722,0.041237473,35.7,4.27,10.85,43,251.99998,6.028532
1784070803773,-0.024888888,1.2571329,0.11029194,27.16,18.34,13.65,43,251.99998,6.028532
1784070803773,0.042213507,1.4442875,-0.03611329,32.69,25.76,15.75,43,251.99998,6.028532
1784070803773,-0.065394334,1.4325751,0.03391721,27.58,34.44,13.2300005,43,251.99998,6.028532
1784070803773,0.04611765,1.4045141,0.050509803,23.52,40.04,7.56,43,251.99998,6.028532
1784070803773,0.21228758,1.3037386,0.21521568,50.19,27.51,-5.32,43,251.99998,6.028532
1784070803907,0.24937691,1.3144749,0.6576035,72.1,25.48,-17.08,43,251.99998,6.028532
1784070803907,0.07198257,1.6680436,0.59147716,69.02,42.35,-31.710001,43,251.99998,6.028532
1784070803907,-0.18739869,1.7444183,0.56024396,51.1,57.75,-45.15,43,251.99998,6.028532
1784070803907,-0.15616558,1.8039564,0.5011939,41.79,55.23,-52.57,43,251.99998,6.028532
1784070803907,0.1373769,2.0635817,0.30915904,72.66,41.72,-61.88,43,251.99998,6.028532
1784070803907,0.12908061,1.8122528,0.18276253,32.13,26.880001,-65.1,43,251.99998,6.028532
1784070803907,-0.11151198,1.5292026,0.39261004,-22.05,23.87,-55.3,43,251.99998,6.028532
1784070803907,-0.47142482,1.3113029,0.4924096,-24.99,16.45,-44.1,43,251.99998,6.028532
1784070803959,-0.74666667,1.2251678,0.51168627,-2.8700001,8.68,-37.52,43,251.99998,6.028532
1784070803959,-0.6122179,1.1343966,0.5024139,-1.54,4.2,-33.18,43,251.99998,6.028532
1784070803959,-0.48435733,1.0001917,0.53608716,-16.03,2.52,-25.9,43,251.99998,6.028532
1784070803959,-0.33380392,0.99677557,0.47996512,-23.8,1.05,-17.36,44,240.0,6.028532
1784070803959,-0.13884096,1.0006797,0.40700653,-31.78,1.26,-10.22,44,240.0,6.028532
1784070803959,0.0148845315,0.98555124,0.38553378,-43.68,3.5,-3.71,44,240.0,6.028532
1784070803959,0.03782135,0.9828671,0.36357298,-45.85,7.84,1.4,44,240.0,6.028532
1784070803959,0.14274509,0.99604356,0.39578214,-28.28,15.26,2.66,44,240.0,6.028532
1784070804041,0.12151635,1.0021439,0.2435207,-15.12,25.27,3.3600001,44,240.0,6.028532
1784070804041,0.10589978,1.0087321,0.24791284,-10.22,33.81,4.97,44,240.0,6.028532
1784070804041,0.09077124,1.0236166,0.27036166,-3.5,40.95,10.01,44,240.0,6.028532
1784070804041,0.08003486,0.8972201,0.308427,-3.01,46.34,17.15,44,240.0,6.028532
1784070804041,0.11614815,0.89380395,0.25108495,-3.92,49.28,24.64,44,240.0,6.028532
1784070804041,0.11395206,0.8257255,0.25596514,-11.62,50.33,31.29,44,240.0,6.028532
1784070804041,0.10345969,0.727878,0.24156862,-12.25,49.7,37.31,44,240.0,6.028532
1784070804041,0.06734641,0.64515907,0.24498475,-7.21,50.12,40.95,44,240.0,6.028532
1784070804056,0.07979085,0.58659697,0.22619607,-3.15,48.65,43.47,44,240.0,6.028532
1784070804056,-0.009028322,0.5861089,0.22863616,-8.54,51.59,46.06,44,240.0,6.028532
1784070804056,0.06685839,0.5092462,0.18837473,0.63,45.85,48.86,44,240.0,6.028532
1784070804056,0.076862745,0.5414553,0.14664924,8.47,43.47,49.91,44,240.0,6.028532
1784070804056,0.04611765,0.6012375,0.1542135,6.7200003,42.7,48.16,44,240.0,6.028532
1784070804056,0.039529413,0.588305,0.14054902,6.51,42.14,43.96,44,240.0,6.028532
1784070804056,0.00756427,0.61392593,0.13078867,15.12,42.49,39.2,44,240.0,6.028532
1784070804056,-0.014640523,0.65955555,0.10492375,21.84,41.3,33.6,44,240.0,6.028532
1784070804136,-0.029037038,0.7198257,0.10126361,21.77,38.29,27.23,44,240.0,6.028532
1784070804136,-0.040993463,0.68664056,0.13127668,24.99,34.79,20.79,44,240.0,6.028532
1784070804136,-0.10467974,0.812549,0.07613072,35.21,31.22,14.77,44,240.0,6.028532
1784070804136,-0.14103703,0.8972201,0.10614379,32.55,24.78,11.2,44,240.0,6.028532
1784070804136,-0.17983443,0.9394335,0.073934644,30.45,17.43,9.1,44,240.0,6.028532
1784070804136,-0.223756,0.92601305,0.0644183,28.84,11.2,7.0,44,240.0,6.028532
1784070804136,-0.23888454,0.93016124,0.059782133,22.54,4.76,5.18,44,240.0,6.028532
1784070804136,-0.23644444,0.93918955,0.026352942,11.13,-0.42000002,4.13,44,240.0,6.028532
1784070804224,-0.2017952,0.8991721,0.02293682,-3.43,-5.18,2.66,44,240.0,6.028532
1784070804224,-0.16885403,0.8769674,-0.040993463,-19.53,-7.7,0.84000003,44,240.0,6.028532
1784070804224,-0.12834857,0.841098,-0.0783268,-34.93,-8.4,-1.4,44,240.0,6.028532
1784070804224,-0.07661873,0.81157297,-0.10028758,-47.32,-8.47,-3.71,44,240.0,6.028532
1784070804224,-0.016592592,0.7915643,-0.0978475,-52.43,-7.77,-6.02,44,240.0,6.028532
1784070804224,0.052705884,0.783512,-0.059782133,-50.47,-6.09,-7.98,44,240.0,6.028532
1784070804224,0.12200436,0.784488,-0.017568627,-39.06,-3.78,-9.24,44,240.0,6.028532
1784070804224,0.17861438,0.8005926,-0.001708061,-18.76,0.42000002,-10.43,44,240.0,6.028532
1784070804270,0.16836601,0.8557386,0.009272331,4.55,3.5,-10.92,44,240.0,6.028532
1784070804270,0.1542135,0.89746404,0.018788671,20.37,1.54,-10.15,44,240.0,6.028532
1784070804270,0.13810892,1.0172724,0.07539869,27.02,-1.82,-7.98,44,240.0,6.028532
1784070804270,0.25132897,1.0206885,0.19081481,35.35,-7.42,-4.34,44,240.0,6.028532
1784070804270,0.056122,1.2415164,0.10955991,53.27,-4.2,-0.42000002,44,240.0,6.028532
1784070804270,-0.021960784,1.2078432,-0.07247059,59.5,-5.04,4.27,44,240.0,6.028532
1784070804270,-0.21594772,1.2944663,-0.16031373,52.85,-6.58,11.69,44,240.0,6.028532
1784070804270,-0.33380392,1.2534728,-0.22668411,40.81,-12.81,20.51,44,240.0,6.028532
1784070804404,-0.28012198,1.1158519,-0.16128977,30.03,-4.62,22.75,45,222.0,6.028532
1784070804404,-0.056122,1.0221525,0.19813508,17.92,-5.95,19.32,45,222.0,6.028532
1784070804404,0.2942745,1.1102396,0.559024,19.18,-8.47,15.61,45,222.0,6.028532
1784070804404,0.59196514,1.3012985,0.7549629,29.89,-15.4,14.91,45,222.0,6.028532
1784070804404,0.5224227,1.5138301,0.57171243,56.91,-23.73,14.91,45,222.0,6.028532
1784070804404,-0.22155991,1.707573,0.29549456,84.28,-18.62,16.73,45,222.0,6.028532
1784070804404,-0.9574902,1.8795992,0.3059869,63.63,-29.12,27.02,45,222.0,6.028532
1784070804404,-0.84890634,1.5204183,0.028549021,2.59,-25.41,37.03,45,222.0,6.028532
1784070804450,-0.47947714,1.2083311,0.10199564,-52.01,-18.83,43.4,45,222.0,6.028532
1784070804450,-0.008296296,1.1209761,0.42774728,-32.27,-14.35,46.13,46,228.0,6.028532
1784070804450,0.3608889,1.202963,0.6278344,-1.26,-5.88,46.9,46,228.0,6.028532
1784070804450,0.36015686,1.1080436,0.47191286,20.37,0.35,42.28,46,228.0,6.028532
1784070804450,0.26548147,1.0614378,0.40920264,22.05,2.03,36.47,47,234.0,6.028532
1784070804450,0.22985621,0.96041834,0.42994332,2.38,-0.49,27.93,47,234.0,6.028532
1784070804450,0.13640088,1.0023878,0.40115032,-9.94,-2.94,18.41,47,234.0,6.028532
1784070804450,0.076862745,1.061194,0.39065796,-6.93,-6.79,7.07,47,234.0,6.028532
1784070804494,0.039285403,1.2671373,0.44482788,-5.95,-12.39,-3.01,47,234.0,6.028532
1784070804494,-0.03391721,1.428915,0.3884619,5.32,-17.85,-11.76,47,234.0,6.028532
1784070804494,-0.114928104,1.5170022,0.30452287,3.64,-22.960001,-18.13,47,234.0,6.028532
1784070804494,-0.16861002,1.3259434,0.27304575,-3.08,-27.79,-23.8,47,234.0,6.028532
1784070804494,-0.2098475,1.2093072,0.23107626,-12.88,-28.210001,-28.56,47,234.0,6.028532
1784070804494,-0.223756,1.1077995,0.24571678,-20.65,-26.04,-30.380001,48,240.0,6.028532
1784070804494,-0.17105012,1.0048279,0.25376904,-19.67,-20.93,-29.82,48,240.0,6.028532
1784070804494,-0.1202963,0.923573,0.24278867,-16.03,-14.77,-26.6,48,240.0,6.028532
1784070804584,-0.049045753,0.86037475,0.23254031,-15.12,-10.43,-21.91,48,240.0,6.028532
1784070804584,-0.008296296,0.80840087,0.20618735,-14.56,-7.21,-17.15,48,240.0,6.028532
1784070804584,0.028061,0.74715465,0.18935075,-17.36,-4.76,-13.440001,48,240.0,6.028532
1784070804584,0.0588061,0.65199125,0.20350327,-19.67,-2.59,-10.43,48,240.0,6.028532
1784070804584,0.06783442,0.62368625,0.17690632,-15.89,-1.96,-8.19,48,240.0,6.028532
1784070804584,0.08418301,0.5761046,0.17959042,-17.36,-1.54,-6.3,48,240.0,6.028532
1784070804584,0.06832244,0.51144224,0.18325055,-14.28,-1.19,-4.76,48,240.0,6.028532
1784070804584,0.043189544,0.4933856,0.15982571,-10.99,-1.26,-4.27,48,240.0,6.028532
1784070804674,0.02098475,0.5024139,0.16446187,-11.06,-1.12,-5.18,48,240.0,6.028532
1784070804674,-0.016836602,0.5199826,0.16299781,-8.19,-1.33,-7.07,48,240.0,6.028532
1784070804674,-0.06246623,0.43262747,0.22253595,-0.84000003,-2.24,-9.8,48,240.0,6.028532
1784070804674,-0.050021786,0.5370632,0.12981263,1.33,-0.49,-11.97,48,240.0,6.028532
1784070804674,-0.043677557,0.57000434,0.075154684,8.19,-0.07,-13.3,48,240.0,6.028532
1784070804674,-0.052461874,0.58976907,0.07954685,4.97,3.01,-14.56,48,240.0,6.028532
1784070804674,-0.053925924,0.6192941,0.051973857,3.29,6.09,-14.91,48,240.0,6.028532
1784070804674,-0.052217867,0.65443134,0.03025708,0.42000002,9.38,-13.72,48,240.0,6.028532
1784070804719,-0.046361655,0.6956688,-0.009760349,-3.01,12.18,-10.71,48,240.0,6.028532
1784070804719,-0.026596949,0.7430065,-0.03806536,-7.84,14.77,-6.65,48,240.0,6.028532
1784070804719,-0.009272331,0.784244,-0.027328975,-14.77,18.48,-2.73,48,240.0,6.028532
1784070804719,0.025132896,0.81864923,-0.010492375,-20.3,22.75,1.05,48,240.0,6.028532
1784070804719,0.003416122,0.8581786,-0.051729847,-27.65,26.11,5.25,48,240.0,6.028532
1784070804719,-0.028549021,0.84329414,-0.039285403,-34.16,27.79,9.38,48,240.0,6.028532
1784070804719,-0.05563399,0.80498475,0.01708061,-35.21,27.72,12.04,48,240.0,6.028532
1784070804719,-0.07930283,0.7954684,0.076374725,-26.04,25.41,13.2300005,48,240.0,6.028532
1784070804809,-0.07222658,0.79278433,0.102239646,-8.33,18.83,11.4800005,48,240.0,6.028532
1784070804809,-0.15299346,0.8332898,0.15201743,5.81,14.14,8.05,48,240.0,6.028532
1784070804809,-0.2603573,0.8620828,0.13444881,17.29,6.7200003,3.64,48,240.0,6.028532
1784070804809,-0.42725924,0.9457778,0.19740304,28.35,0.91,-0.56,48,240.0,6.028532
1784070804809,-0.5570719,0.980915,0.25303704,34.09,0.28,-4.13,48,240.0,6.028532
1784070804809,-0.55316776,1.1065795,0.20887147,37.170002,1.19,-5.88,48,240.0,6.028532
1784070804809,-0.502902,1.2627451,0.038797386,46.76,2.94,-8.26,48,240.0,6.028532
1784070804809,-0.36772114,1.4935774,-0.06856645,46.83,8.26,-17.43,48,240.0,6.028532
1784070804899,-0.104435734,1.4882091,-0.07198257,33.95,10.85,-29.12,48,240.0,6.028532
1784070804899,0.13103268,1.2934902,-0.15567756,23.17,8.4,-39.41,48,240.0,6.028532
1784070804899,0.28719825,1.119024,-0.17837037,15.82,-6.58,-48.37,49,234.0,6.028532
1784070804899,0.22741611,0.9896993,0.18325055,19.95,-13.440001,-51.66,49,234.0,6.028532
1784070804899,-0.003416122,1.2019869,0.19349891,28.07,-6.65,-53.97,49,234.0,6.028532
1784070804899,-0.11395206,1.2900741,0.07247059,25.48,0.42000002,-57.61,49,234.0,6.028532
1784070804899,-0.06515033,1.2766536,0.10614379,24.22,2.59,-56.7,49,234.0,6.028532
1784070804899,-0.03660131,1.4089063,0.5060741,25.55,6.58,-57.12,49,234.0,6.028532
1784070804945,-0.070030496,1.6353464,0.98189104,47.18,36.05,-62.3,49,234.0,6.028532
1784070804945,0.15567756,1.7746753,0.59220916,60.55,55.23,-67.27,49,234.0,6.028532
1784070804945,0.45824835,1.568976,0.3557647,36.47,52.71,-68.25,49,234.0,6.028532
1784070804945,0.2662135,1.313499,0.4928976,-8.26,39.83,-62.37,49,234.0,6.028532
1784070804945,-0.037089325,1.2442003,0.6856645,-10.85,26.39,-61.46,49,234.0,6.028532
1784070804945,-0.22229193,1.2686013,0.65369934,3.78,13.3,-62.93,49,234.0,6.028532
1784070804945,-0.41652286,1.2417604,0.5582919,9.87,0.98,-58.8,49,234.0,6.028532
1784070804945,-0.43921572,1.2244358,0.4702048,9.66,-18.97,-48.65,49,234.0,6.028532
1784070805075,-0.43067536,1.1627016,0.4145708,0.63,-34.23,-35.28,49,234.0,6.028532
1784070805075,-0.39553812,1.1148758,0.335756,-16.1,-45.36,-20.65,49,234.0,6.028532
1784070805075,-0.27011764,1.1363486,0.35893682,-33.32,-49.35,-7.0,49,234.0,6.028532
1784070805075,-0.195695,1.1429368,0.35112852,-32.97,-37.1,3.78,49,234.0,6.028532
1784070805075,-0.024888888,1.1827103,0.21082354,-10.36,-30.1,13.79,49,234.0,6.028532
1784070805075,0.013908497,1.260549,0.18349455,-1.12,-14.49,21.98,49,234.0,6.028532
1784070805075,0.13298476,1.2256558,0.15104139,-0.42000002,-1.4,26.18,49,234.0,6.028532
1784070805075,0.19642702,1.1627016,0.1456732,-5.18,7.63,29.33,50,240.0,6.028532
1784070805086,0.19252288,1.0814466,0.19691503,-13.3,12.81,32.83,50,240.0,6.028532
1784070805086,0.19935511,0.91405666,0.23400435,-18.62,14.35,35.07,50,240.0,6.028532
1784070805086,0.16226579,0.7769238,0.2659695,-12.11,15.75,35.77,50,240.0,6.028532
1784070805086,0.105167754,0.7312941,0.23644444,0.28,16.59,34.65,50,240.0,6.028532
1784070805086,0.052217867,0.65223527,0.21985185,8.82,13.79,32.34,50,240.0,6.028532
1784070805086,0.028549021,0.59196514,0.21448365,14.14,10.43,30.03,50,240.0,6.028532
1784070805086,-0.013664488,0.53657514,0.1793464,16.31,7.84,27.93,50,240.0,6.028532
1784070805086,-0.06661438,0.5231547,0.14396514,18.48,10.78,25.27,50,240.0,6.028532
1784070805211,-0.0048801745,0.447512,0.12664051,18.62,7.07,23.24,50,240.0,6.028532
1784070805211,0.12981263,0.41530284,0.09979956,15.05,6.44,21.14,50,240.0,6.028532
1784070805211,0.0063442267,0.47337687,0.04733769,15.12,7.35,19.67,50,240.0,6.028532
1784070805211,0.0024400873,0.4953377,0.08613508,12.11,9.17,18.27,50,240.0,6.028532
1784070805211,-0.018788671,0.504122,0.059050106,17.22,15.12,16.31,50,240.0,6.028532
1784070805211,0.014640523,0.6588235,0.050265793,32.06,13.16,15.75,50,240.0,6.028532
1784070805211,0.0046361657,0.71396947,0.032941177,38.08,9.45,15.12,50,240.0,6.028532
1784070805211,-0.10345969,0.76935947,0.033673204,35.0,11.34,13.37,50,240.0,6.028532
1784070805262,-0.105167754,0.80108064,0.01903268,27.09,-0.14,11.27,50,240.0,6.028532
1784070805262,-0.084915034,0.7954684,0.017324617,16.8,-3.22,7.98,50,240.0,6.028532
1784070805262,-0.13225272,0.7861961,-0.01146841,5.95,-15.26,2.8,50,240.0,6.028532
1784070805262,-0.12566449,0.7918083,0.0053681917,-3.57,-20.79,-3.01,50,240.0,6.028532
1784070805262,-0.09711547,0.8018126,-0.031233115,-10.64,-22.89,-8.54,50,240.0,6.028532
1784070805262,-0.043189544,0.79620045,-0.06612636,-18.27,-23.52,-13.440001,50,240.0,6.028532
1784070805262,0.027572986,0.77741176,-0.06856645,-26.18,-23.17,-18.13,50,240.0,6.028532
1784070805262,0.1259085,0.7581351,-0.060270153,-29.960001,-20.72,-22.4,50,240.0,6.028532
1784070805305,0.2774379,0.7454466,-0.08296296,-31.85,-13.2300005,-24.64,50,240.0,6.028532
1784070805305,0.19837908,0.8142571,0.0053681917,-30.73,-12.18,-25.9,50,240.0,6.028532
1784070805305,0.19349891,0.8745272,0.015372549,-2.24,-5.6,-25.69,50,240.0,6.028532
1784070805305,0.1651939,0.8947799,-0.034405228,-9.38,-0.07,-23.66,50,240.0,6.028532
1784070805305,0.2549891,0.950902,0.027572986,-8.12,-1.75,-21.63,50,240.0,6.028532
1784070805305,0.35283658,1.1012113,0.035137255,10.15,-9.52,-21.28,50,240.0,6.028532
1784070805305,0.32697168,1.2507887,0.086623095,32.83,-15.33,-20.16,50,240.0,6.028532
1784070805305,0.07710675,1.4342833,0.063686274,58.66,-3.5,-16.03,50,240.0,6.028532
1784070805394,0.0019520697,1.4472157,-0.050021786,62.23,-6.58,-4.83,50,240.0,6.028532
1784070805394,-0.34161222,1.5191983,-0.09345534,52.08,-12.67,9.52,50,240.0,6.028532
1784070805394,-0.39407408,1.4574641,-0.103947714,28.14,-12.6,21.14,50,240.0,6.028532
1784070805394,-0.2554771,1.3791373,-0.22522004,2.38,-9.59,26.74,50,240.0,6.028532
1784070805394,0.07076252,1.2944663,-0.23668844,-8.19,-7.14,28.28,50,240.0,6.028532
1784070805394,0.2662135,1.3122789,-0.17837037,-1.6800001,6.02,26.880001,50,240.0,6.028532
1784070805394,0.5231547,1.3527843,0.21497166,13.2300005,6.93,24.01,50,240.0,6.028532
1784070805394,0.43311545,1.5004096,0.3252636,14.28,13.79,20.51,50,240.0,6.028532
1784070805484,0.21643573,1.4398955,0.251817,-2.8700001,12.18,17.15,50,240.0,6.028532
1784070805484,0.032941177,1.3825533,0.56512415,-1.75,-0.7,15.33,50,240.0,6.028532
1784070805484,-0.13030066,1.3996339,0.83939,32.48,-18.48,16.17,50,240.0,6.028532
1784070805484,-0.6312505,1.6551112,0.6322266,78.33,-31.43,26.460001,50,240.0,6.028532
1784070805484,-1.1568453,1.6416906,0.013176471,59.010002,-42.14,44.45,50,240.0,6.028532
1784070805484,-1.0897429,1.1739259,-0.09150327,-32.13,-50.54,62.86,50,240.0,6.028532
1784070805484,-0.54975164,0.9152767,0.30769497,-68.32,-53.34,77.49,51,228.0,6.028532
1784070805484,-0.070518516,0.87257516,0.43506756,-43.33,-45.43,83.3,51,228.0,6.028532
1784070805529,0.23034422,0.8088889,0.5495076,-11.62,-38.78,79.24,51,228.0,6.028532
1784070805529,0.3691852,0.77643573,0.49826577,1.19,-34.16,70.07,51,228.0,6.028532
1784070805529,0.39749017,0.6527233,0.4453159,5.18,-33.11,58.52,51,228.0,6.028532
1784070805529,0.31965142,0.5443834,0.36772114,0.28,-34.86,47.53,51,228.0,6.028532
1784070805529,0.21741176,0.5736645,0.29695863,-11.55,-36.89,37.170002,51,228.0,6.028532
1784070805529,0.17031808,0.64564705,0.33136383,-17.710001,-38.99,24.36,51,228.0,6.028532
1784070805529,0.13688889,0.7866841,0.34478432,4.06,-40.81,8.75,51,228.0,6.028532
1784070805529,0.04684967,1.2122352,0.38797387,11.76,-42.14,-5.6,51,228.0,6.028532
1784070805664,-0.0588061,1.4401394,0.42945534,14.56,-42.77,-18.2,51,228.0,6.028532
1784070805664,-0.1454292,1.5040697,0.34990847,17.64,-43.75,-29.33,51,228.0,6.028532
1784070805664,-0.24791284,1.4786929,0.24498475,1.75,-51.170002,-37.94,51,228.0,6.028532
1784070805664,-0.32209152,1.286414,0.29281047,-15.96,-57.12,-42.77,51,228.0,6.028532
1784070805664,-0.3584488,1.1253681,0.28183007,-25.34,-59.08,-43.68,51,228.0,6.028532
1784070805664,-0.36747712,1.036305,0.2547451,-32.2,-59.64,-41.23,52,234.0,6.028532
1784070805664,-0.30720696,0.93016124,0.24132463,-32.76,-60.83,-38.01,52,234.0,6.028532
1784070805664,-0.23327233,0.89209586,0.22473203,-31.5,-62.23,-35.49,52,234.0,6.028532
1784070805709,-0.15323746,0.8537865,0.224488,-29.75,-64.54,-33.39,52,234.0,6.028532
1784070805709,-0.10126361,0.8005926,0.21472767,-26.32,-65.38,-31.29,52,234.0,6.028532
1784070805709,-0.06661438,0.8149891,0.18813072,-22.26,-65.31,-29.75,52,234.0,6.028532
1784070805709,-0.03025708,0.79376036,0.17959042,-16.45,-65.8,-28.91,52,234.0,6.028532
1784070805709,0.014152505,0.78229195,0.18422659,-10.64,-64.96,-29.33,52,234.0,6.028532
1784070805709,0.048557736,0.81474507,0.15079738,-1.4,-65.66,-29.89,52,234.0,6.028532
1784070805709,0.004148148,0.6856645,0.2464488,3.92,-63.28,-31.01,52,234.0,6.028532
1784070805709,0.062222224,0.7681394,0.16202179,6.93,-59.71,-32.41,52,234.0,6.028532
1784070805755,0.06637037,0.75447494,0.15470152,9.7300005,-57.47,-33.6,52,234.0,6.028532
1784070805755,0.06319825,0.7613072,0.13981698,16.52,-56.98,-33.39,52,234.0,6.028532
1784070805755,0.055877995,0.73324615,0.13200872,13.79,-53.83,-32.55,52,234.0,6.028532
1784070805755,0.06929847,0.7491067,0.09857952,10.43,-51.170002,-31.15,52,234.0,6.028532
1784070805755,0.08711111,0.7671634,0.078570805,9.03,-48.65,-29.89,52,234.0,6.028532
1784070805755,0.08418301,0.78229195,0.06856645,2.73,-45.36,-27.79,52,234.0,6.028532
1784070805755,0.08467103,0.757403,0.054413944,-5.18,-41.93,-24.01,52,234.0,6.028532
1784070805755,0.08223093,0.76765144,0.031477123,-9.59,-38.78,-18.62,52,234.0,6.028532
1784070805891,0.089551196,0.74959475,0.0056122006,-11.62,-34.79,-11.76,52,234.0,6.028532
1784070805891,0.09345534,0.72861004,-0.0063442267,-16.03,-29.89,-4.34,52,234.0,6.028532
1784070805891,0.11322004,0.728366,-0.076862745,-19.11,-24.85,2.45,52,234.0,6.028532
1784070805891,0.109071895,0.70908934,-0.112244,-22.12,-19.95,8.12,52,234.0,6.028532
1784070805891,0.09077124,0.6837124,-0.1590937,-27.37,-15.26,12.74,52,234.0,6.028532
1784070805891,0.04684967,0.6534553,-0.16202179,-33.11,-10.78,16.8,52,234.0,6.028532
1784070805891,0.028549021,0.6088018,-0.11395206,-35.91,-9.03,19.6,52,234.0,6.028532
1784070805891,0.0036601308,0.56683224,-0.046361655,-32.55,-9.03,20.65,52,234.0,6.028532
1784070805914,-0.03050109,0.5900131,0.016104575,-20.65,-6.3,19.32,52,234.0,6.028532
1784070805914,-0.0812549,0.5714684,0.18300654,-6.02,-5.25,18.06,52,234.0,6.028532
1784070805914,0.040749453,0.7576471,0.13957298,13.3,-9.59,15.47,52,234.0,6.028532
