timestamp_ms,accX_g,accY_g,accZ_g,gyrX,gyrY,gyrZ,step_count,cadence_spm,peak_impact_g
1784072425749,0.024400871,1.1509892,0.027084969,0.07,-15.33,37.170002,0,0.0,1.1515664
1784072425749,0.16299781,1.0258126,0.108095855,0.7,-14.0,33.25,0,0.0,1.1515664
1784072425749,0.24181265,0.96505445,0.10589978,-2.8700001,-8.19,28.98,0,0.0,1.1515664
1784072425749,0.39749017,1.0443573,0.1315207,-8.96,-4.76,24.57,0,0.0,1.1515664
1784072425749,0.34454033,0.895512,0.15348148,-9.17,-0.35,23.38,0,0.0,1.1515664
1784072425749,0.1566536,0.8908758,0.09613943,-10.85,-0.77,22.33,0,0.0,1.1515664
1784072425749,0.11517211,0.98018295,0.040505446,-8.89,-5.11,23.87,0,0.0,1.1515664
1784072425749,0.109071895,1.0297167,-0.0036601308,-9.94,-7.63,25.34,0,0.0,1.1515664
1784072425794,0.105655774,1.2002789,-0.060758173,-4.69,-14.14,21.98,0,0.0,1.206451
1784072425794,0.08418301,1.259329,-0.11029194,-2.24,-18.83,14.21,0,0.0,1.2669493
1784072425794,-0.001708061,1.1729499,-0.070518516,-3.92,-22.75,5.6,1,0.0,1.2669493
1784072425794,-0.105167754,1.1265882,-0.084915034,-11.41,-24.01,-0.98,1,0.0,1.2669493
1784072425794,-0.16934206,1.0433812,-0.037333332,-12.81,-24.78,-4.41,1,0.0,1.2669493
1784072425794,-0.23790848,0.98408717,-0.058562092,-12.46,-24.22,-4.83,1,0.0,1.2669493
1784072425794,-0.2549891,0.96773857,-0.0868671,-14.56,-23.45,-3.43,1,0.0,1.2669493
1784072425794,-0.23156427,0.9099085,-0.08174292,-17.710001,-23.59,-2.24,1,0.0,1.2669493
1784072425840,-0.21667975,0.84231806,-0.055389978,-17.64,-23.31,-1.82,1,0.0,1.2669493
1784072425840,-0.19130284,0.7981525,-0.036845315,-17.29,-14.42,-1.26,1,0.0,1.2669493
1784072425840,-0.078570805,0.79351634,-0.0951634,-15.82,-18.97,-1.6800001,1,0.0,1.2669493
1784072425840,-0.08223093,0.7744837,-0.076862745,-16.24,-22.05,-3.22,1,0.0,1.2669493
1784072425840,-0.03611329,0.7705795,-0.06905446,-15.68,-19.11,-3.64,1,0.0,1.2669493
1784072425840,0.029769063,0.7859521,-0.09028322,-14.77,-17.99,-2.8700001,1,0.0,1.2669493
1784072425840,0.057098042,0.7866841,-0.095407404,-14.63,-18.76,-1.26,1,0.0,1.2669493
1784072425840,0.08052288,0.7610632,-0.05783007,-13.16,-16.31,1.26,1,0.0,1.2669493
1784072425884,0.08515904,0.75471896,-0.06515033,-10.85,-13.86,3.08,1,0.0,1.2669493
1784072425884,0.057098042,0.7417865,-0.05929412,-9.1,-10.29,3.85,1,0.0,1.2669493
1784072425884,0.15372549,0.72958606,-0.0868671,-10.01,-6.58,4.55,1,0.0,1.2669493
1784072425884,0.11053595,0.7256819,-0.12834857,-14.84,-8.12,3.99,1,0.0,1.2669493
1784072425884,0.09394335,0.6949368,-0.12176035,-18.55,-6.93,4.55,1,0.0,1.2669493
1784072425884,-0.031477123,0.7120174,-0.1263965,-17.08,0.28,6.37,1,0.0,1.2669493
1784072425884,0.0012200436,0.69274074,-0.15787365,-20.37,0.07,7.98,1,0.0,1.2669493
1784072425884,-0.016836602,0.6917647,-0.1595817,-22.4,1.33,9.38,1,0.0,1.2669493
1784072426064,-0.032941177,0.67956424,-0.16104576,-22.12,2.59,10.71,1,0.0,1.2669493
1784072426064,-0.050021786,0.68224835,-0.20472331,-20.86,4.76,12.11,1,0.0,1.2669493
1784072426064,-0.07198257,0.6658998,-0.21155554,-19.53,7.0,12.74,1,0.0,1.2669493
1784072426064,-0.10687582,0.6634597,-0.18666667,-17.710001,8.82,12.53,1,0.0,1.2669493
1784072426064,-0.14786929,0.67102396,-0.12932462,-14.14,10.08,11.83,1,0.0,1.2669493
1784072426064,-0.18349455,0.7088453,-0.044653594,-6.44,12.81,10.08,1,0.0,1.2669493
1784072426064,-0.15860566,0.7766797,-0.025132896,1.96,13.65,7.42,1,0.0,1.2669493
1784072426064,-0.08613508,0.8798954,-0.043677557,7.84,10.85,4.06,1,0.0,1.2669493
1784072426108,0.00756427,0.9955556,-0.09955555,11.34,6.02,0.21000001,1,0.0,1.2669493
1784072426108,0.032453157,1.1329324,-0.087843135,16.94,4.27,-4.83,1,0.0,1.2669493
1784072426108,0.107363835,1.2107712,-0.11932026,27.86,7.56,-10.29,1,0.0,1.2669493
1784072426108,0.099311545,1.3347276,-0.18959478,43.68,13.440001,-18.55,1,0.0,1.3517791
1784072426108,0.08003486,1.3910936,-0.2584052,65.8,23.73,-26.53,1,0.0,1.4171522
1784072426108,-0.08808714,1.3781613,-0.4111547,63.91,19.32,-32.55,1,0.0,1.4408803
1784072426108,-0.021960784,1.2954422,-0.4397037,40.18,15.190001,-33.81,1,0.0,1.4408803
1784072426108,0.13615687,1.259573,-0.4384837,7.56,15.47,-31.5,1,0.0,1.4408803
1784072426205,0.14713725,1.0719303,-0.04001743,-17.36,5.6,-28.7,2,12.0,1.4408803
1784072426205,-0.012444444,1.0914509,0.08223093,17.99,-2.1,-25.27,2,12.0,1.4408803
1784072426205,-0.33819607,1.1705098,-0.12566449,22.89,1.75,-23.03,2,12.0,1.4408803
1784072426205,-0.40529847,1.1831982,-0.08223093,15.96,-4.41,-19.18,2,12.0,1.4408803
1784072426205,-0.21838781,1.3705969,0.026596949,35.07,-14.35,-13.79,2,12.0,1.4408803
1784072426205,-0.029281046,1.5823965,0.24742483,29.12,-5.18,-15.12,2,12.0,1.601891
1784072426205,0.0419695,1.5450631,0.29866666,44.87,1.19,-26.25,2,12.0,1.601891
1784072426205,0.023912854,1.4335512,-0.031477123,51.38,2.8700001,-40.25,2,12.0,1.601891
1784072426338,0.07954685,1.2420044,4.8801742E-4,28.28,-2.45,-48.37,2,12.0,1.601891
1784072426338,-0.061734203,1.1910065,0.13078867,21.14,-4.62,-51.8,3,18.0,1.601891
1784072426338,-0.17300218,1.0863268,-0.022204792,21.56,-6.7200003,-52.5,3,18.0,1.601891
1784072426338,-0.22644009,1.0294727,-0.028549021,10.36,-9.7300005,-51.73,3,18.0,1.601891
1784072426338,-0.23327233,0.96822655,0.096383445,6.02,-16.03,-49.14,3,18.0,1.601891
1784072426338,-0.1734902,1.0736383,0.09028322,8.54,-20.79,-42.14,3,18.0,1.601891
1784072426338,-0.08979521,1.1880784,-0.043677557,11.34,-23.59,-33.6,3,18.0,1.601891
1784072426338,-0.10345969,1.3098388,-0.10199564,6.93,-14.56,-23.8,3,18.0,1.601891
1784072426420,-0.027084969,1.2590849,-0.19398694,-4.69,-3.85,-12.74,3,18.0,1.601891
1784072426420,0.043921567,1.2705534,-0.16763398,-15.05,4.27,-1.82,3,18.0,1.601891
1784072426420,0.10248367,1.1600174,-0.07661873,-14.14,11.97,5.04,4,24.0,1.601891
1784072426420,0.102239646,1.1844183,-0.0922353,-10.64,18.27,9.7300005,4,24.0,1.601891
1784072426420,0.11907625,1.0672941,-0.0727146,-15.75,21.07,13.440001,4,24.0,1.601891
1784072426420,0.116636164,0.9733507,-0.015860565,-17.85,22.05,15.05,4,24.0,1.601891
1784072426420,0.11444009,0.924061,-0.03538126,-13.58,22.47,15.4,4,24.0,1.601891
1784072426420,0.1590937,0.90210027,-0.09150327,-16.03,14.63,14.28,4,24.0,1.601891
1784072426475,0.06734641,0.81620914,-0.08052288,-18.13,10.64,12.53,4,24.0,1.601891
1784072426475,0.00951634,0.7430065,-0.040505446,-17.92,10.36,11.62,4,24.0,1.601891
1784072426475,0.0475817,0.67956424,-0.016592592,-14.84,11.41,12.95,4,24.0,1.601891
1784072426475,0.015372549,0.6617516,-0.053925924,-11.62,8.75,14.63,4,24.0,1.601891
1784072426475,-0.029525053,0.64735514,-0.06637037,-8.82,7.35,16.73,4,24.0,1.601891
1784072426475,-0.022204792,0.58952504,-0.04782571,-7.56,9.17,18.9,4,24.0,1.601891
1784072426475,-0.035137255,0.58952504,-0.073446624,-5.18,8.75,19.95,4,24.0,1.601891
1784072426475,-0.10589978,0.58976907,-0.059050106,-1.4,11.4800005,19.53,4,24.0,1.601891
1784072426598,-0.075886704,0.5905011,-0.07491068,-3.08,9.66,17.85,4,24.0,1.601891
1784072426598,-0.07735076,0.6119738,-0.057098042,-2.8700001,8.96,15.89,4,24.0,1.601891
1784072426598,-0.053681917,0.60831374,-0.10541177,-0.77,5.18,13.58,4,24.0,1.601891
1784072426598,-0.07320262,0.6080697,-0.12664051,-3.5,-1.47,10.43,4,24.0,1.601891
1784072426598,0.026108934,0.6053856,-0.07247059,-6.7200003,-2.24,7.14,4,24.0,1.601891
1784072426598,9.7603485E-4,0.64955115,-0.17324619,-4.13,-4.34,3.22,4,24.0,1.601891
1784072426598,-0.07783878,0.701281,-0.17837037,-5.6,-10.5,-1.6800001,4,24.0,1.601891
1784072426598,0.0031721133,0.71299344,-0.20399128,-7.98,-12.88,-5.67,4,24.0,1.601891
1784072426649,0.048557736,0.7491067,-0.24913289,-7.4900002,-18.41,-8.75,4,24.0,1.601891
1784072426649,0.108339876,0.74471456,-0.22644009,-8.82,-21.77,-10.85,4,24.0,1.601891
1784072426649,0.15299346,0.7737516,-0.17641829,-7.4900002,-22.4,-13.2300005,4,24.0,1.601891
1784072426649,0.15079738,0.8191372,-0.12810457,0.63,-18.69,-15.05,4,24.0,1.601891
1784072426649,0.13640088,0.896244,-0.13884096,13.51,-10.29,-15.89,4,24.0,1.601891
1784072426649,0.03586928,0.9835992,-0.2154597,24.78,-3.08,-14.91,4,24.0,1.601891
1784072426649,-0.025620917,1.1892985,-0.26743355,24.85,1.19,-9.87,4,24.0,1.601891
1784072426649,0.03538126,1.3071547,-0.1793464,12.67,-4.76,-0.42000002,4,24.0,1.601891
1784072426735,0.09443137,1.3852375,-0.13249673,10.57,-13.93,12.74,4,24.0,1.601891
1784072426735,0.051241834,1.5421351,-0.21887583,29.05,-16.52,26.880001,4,24.0,1.601891
1784072426735,0.1176122,1.622658,-0.45678434,46.06,-16.87,45.5,4,24.0,1.6898235
1784072426735,-0.05563399,1.5992332,-0.5307189,13.79,-24.710001,60.41,4,24.0,1.6898235
1784072426735,-0.41676688,1.3749892,-0.5216906,-49.14,-13.65,60.760002,4,24.0,1.6898235
1784072426735,-0.6558954,1.2463965,0.35698473,-29.89,0.49,55.02,4,24.0,1.6898235
1784072426735,-0.21350762,1.2517647,-0.0046361657,33.46,-8.68,47.53,4,24.0,1.6898235
1784072426735,0.15177341,1.2193116,-0.2908584,3.78,-17.99,38.22,4,24.0,1.6898235
1784072426822,0.15714161,1.1868584,0.12542048,32.2,-27.93,21.77,4,24.0,1.6898235
1784072426822,-0.3472244,1.3610805,-0.29037037,62.02,-21.42,3.78,4,24.0,1.6898235
1784072426822,-0.3213595,1.5950849,0.036845315,15.33,-14.77,8.89,4,24.0,1.6898235
1784072426822,-0.31501526,1.3398519,0.25352505,18.27,-16.03,18.27,4,24.0,1.6898235
1784072426822,-0.26230937,1.2439564,-0.22229193,17.22,-12.67,19.88,4,24.0,1.6898235
1784072426822,-0.11614815,1.1863704,0.02098475,-18.83,-16.52,25.27,5,30.0,1.6898235
1784072426822,0.15567756,1.1341525,0.10467974,-33.53,-21.7,33.670002,5,30.0,1.6898235
1784072426822,0.2996427,1.1031634,0.1263965,-29.47,-18.06,41.65,5,30.0,1.6898235
1784072426917,0.32428756,1.148549,0.10004357,-19.74,-10.57,45.99,5,30.0,1.6898235
1784072426917,0.3503965,1.0238606,0.10419172,-14.9800005,-5.46,46.55,5,30.0,1.6898235
1784072426917,0.3250196,1.0707103,0.008540305,-11.06,-1.26,42.98,5,30.0,1.6898235
1784072426917,0.34527233,1.0507015,-0.021228759,-11.69,0.0,34.72,5,30.0,1.6898235
1784072426917,0.31428322,1.0824227,-0.040993463,-4.55,-1.47,23.59,5,30.0,1.6898235
1784072426917,0.23766449,1.1129237,-0.08174292,-6.51,8.68,10.85,5,30.0,1.6898235
1784072426917,0.23620042,1.0499694,-0.17153813,-16.45,7.14,-2.73,5,30.0,1.6898235
1784072426917,0.12517647,1.006292,-0.1285926,-26.6,6.02,-11.06,5,30.0,1.6898235
1784072427091,0.024400871,0.96163833,-0.13981698,-32.97,7.63,-14.28,5,30.0,1.6898235
1784072427091,-0.0588061,0.91381264,-0.1481133,-33.670002,9.31,-13.02,5,30.0,1.6898235
1784072427091,-0.11541612,0.92162085,-0.18886274,-35.49,11.34,-8.82,5,30.0,1.6898235
1784072427091,-0.14957735,0.8615948,-0.15616558,-38.22,12.88,-3.3600001,5,30.0,1.6898235
1784072427091,-0.14103703,0.79107624,-0.12688452,-38.99,13.65,1.47,5,30.0,1.6898235
1784072427091,-0.08418301,0.7330022,-0.1037037,-35.49,14.9800005,4.9,5,30.0,1.6898235
1784072427091,-0.17959042,0.69688886,-0.07222658,-28.84,23.8,7.7,5,30.0,1.6898235
1784072427091,-0.08979521,0.6551634,-0.0729586,-26.39,26.74,8.54,5,30.0,1.6898235
1784072427134,-0.058318082,0.61709803,-0.03391721,-24.99,26.6,7.35,5,30.0,1.6898235
1784072427134,-0.026596949,0.6046536,-0.054169938,-22.75,25.76,5.32,5,30.0,1.6898235
1784072427134,-0.017812636,0.58781695,-0.04660566,-20.23,24.57,3.57,5,30.0,1.6898235
1784072427134,-0.012444444,0.59538126,-0.032453157,-16.31,23.17,2.73,5,30.0,1.6898235
1784072427134,0.07027451,0.60026145,-0.04514161,-15.61,21.14,2.8,5,30.0,1.6898235
1784072427134,0.04148148,0.614658,-0.039285403,-15.54,19.95,3.01,5,30.0,1.6898235
1784072427134,0.08052288,0.61661005,-0.042457517,-16.1,22.47,4.41,5,30.0,1.6898235
1784072427134,0.06295425,0.6275904,-0.06856645,-20.51,19.32,5.53,5,30.0,1.6898235
1784072427270,0.051729847,0.64906317,-0.09174728,-21.84,18.06,7.14,5,30.0,1.6898235
1784072427270,0.03538126,0.6588235,-0.167878,-20.51,18.06,9.1,5,30.0,1.6898235
1784072427270,-0.12224837,0.700061,-0.22961222,-13.02,24.99,10.71,5,30.0,1.6898235
1784072427270,-0.11395206,0.67395204,-0.24425273,-8.82,25.41,11.06,5,30.0,1.6898235
1784072427270,-0.20911546,0.6893246,-0.19081481,-2.17,28.14,10.29,5,30.0,1.6898235
1784072427270,-0.31550327,0.7200697,-0.11980827,11.06,34.16,8.75,5,30.0,1.6898235
1784072427270,-0.3501525,0.756427,-0.038553376,28.7,34.93,5.18,5,30.0,1.6898235
1784072427270,-0.28988236,0.8323137,-0.021716775,42.56,30.31,-0.84000003,5,30.0,1.6898235
1784072427316,-0.20521133,0.96505445,-0.08930719,45.08,19.04,-10.5,5,30.0,1.6898235
1784072427316,-0.14372113,1.1043835,-0.038797386,30.59,13.02,-21.28,5,30.0,1.6898235
1784072427316,-0.106387794,1.2381003,0.06832244,18.34,15.47,-30.87,5,30.0,1.6898235
1784072427316,-0.06954248,1.3764532,-0.0026840959,24.29,21.35,-40.53,5,30.0,1.6898235
1784072427316,-0.07613072,1.4452636,-0.14933333,47.04,33.46,-42.98,5,30.0,1.6898235
1784072427316,0.055877995,1.4667364,-0.308427,48.09,32.06,-37.73,5,30.0,1.6898235
1784072427316,0.5187625,1.3835294,-0.25401306,21.91,23.87,-32.62,5,30.0,1.6898235
1784072427316,0.43506756,1.063878,0.22399999,19.460001,16.8,-31.57,6,36.0,1.6898235
1784072427451,-0.039529413,0.8869717,0.32648364,43.89,19.6,-27.65,6,36.0,1.6898235
1784072427451,-0.36015686,0.85281044,0.3555207,65.87,25.06,-22.61,6,36.0,1.6898235
1784072427451,-0.12200436,1.0597298,0.1373769,75.74,21.35,-21.0,6,36.0,1.6898235
1784072427451,0.19837908,1.231756,0.27572984,39.69,20.09,-27.93,6,36.0,1.6898235
1784072427451,0.23400435,1.2512767,0.39871022,29.61,20.51,-46.83,6,36.0,1.6898235
1784072427451,0.13810892,1.3342396,0.079058826,60.760002,20.93,-68.53,6,36.0,1.6898235
1784072427451,0.035137255,1.2776296,-0.11346405,40.81,12.04,-86.03,6,36.0,1.6898235
1784072427451,-0.24034858,1.3105708,0.32575163,39.62,5.18,-96.11,6,36.0,1.6898235
1784072427543,-0.49460566,1.5870327,0.018056644,67.2,-2.73,-94.36,6,36.0,1.6898235
1784072427543,-0.44482788,1.6102135,-0.021228759,51.03,-9.24,-83.3,6,36.0,1.6898235
1784072427543,-0.44726795,1.5797124,-0.054413944,29.33,-6.3,-65.94,6,36.0,1.6898235
1784072427543,-0.391878,1.5850806,-0.061246186,7.21,-4.41,-41.65,6,36.0,1.6898235
1784072427543,-0.2908584,1.541647,-0.064906314,-9.03,-0.14,-14.14,6,36.0,1.6898235
1784072427543,-0.09296732,1.3835294,-0.09711547,-27.51,5.95,6.09,6,36.0,1.6898235
1784072427543,0.028549021,1.2510327,-0.11444009,-33.74,13.51,15.33,6,36.0,1.6898235
1784072427543,0.058562092,1.231024,-0.1454292,-38.43,20.37,15.33,6,36.0,1.6898235
1784072427724,0.06905446,1.1082876,-0.055389978,-36.89,25.27,10.36,7,42.0,1.6898235
1784072427724,0.03586928,1.0514336,-0.044409584,-27.79,26.11,4.06,7,42.0,1.6898235
1784072427724,0.024400871,0.9940915,-0.06978649,-24.08,22.33,-1.6800001,7,42.0,1.6898235
1784072427724,0.03562527,0.92210895,-0.055389978,-27.16,16.1,-5.53,7,42.0,1.6898235
1784072427724,0.01708061,0.87135506,-0.06978649,-28.210001,3.99,-9.1,7,42.0,1.6898235
1784072427724,0.09199129,0.838658,-0.068810456,-35.84,-4.55,-9.66,7,42.0,1.6898235
1784072427724,0.07247059,0.7664314,-0.04343355,-35.98,-9.1,-9.1,7,42.0,1.6898235
1784072427724,7.320261E-4,0.75374293,-0.043677557,-32.2,-9.87,-6.23,7,42.0,1.6898235
1784072427769,-0.053925924,0.72104573,-0.02464488,-26.53,-6.58,-2.66,7,42.0,1.6898235
1784072427769,-0.12737255,0.68468845,-0.021716775,-20.58,-4.9,0.35,7,42.0,1.6898235
1784072427769,-0.09833551,0.6751721,-0.065394334,-14.63,-3.43,3.78,7,42.0,1.6898235
1784072427769,-0.18422659,0.64247495,-0.101019606,-11.06,-1.89,8.19,7,42.0,1.6898235
1784072427769,-0.19398694,0.62222224,-0.15714161,-14.91,-2.17,11.83,7,42.0,1.6898235
1784072427769,-0.17690632,0.6000174,-0.17885838,-20.86,-5.11,14.21,7,42.0,1.6898235
1784072427769,-0.15567756,0.5646362,-0.24913289,-22.33,-8.89,15.4,7,42.0,1.6898235
1784072427769,-0.084427014,0.532671,-0.223756,-22.4,-7.84,16.66,7,42.0,1.6898235
1784072427875,-0.0014640522,0.5575599,-0.23839653,-21.7,-16.17,16.45,7,42.0,1.6898235
1784072427875,0.13786492,0.54413944,-0.1285926,-18.34,-23.1,15.4,7,42.0,1.6898235
1784072427875,0.22668411,0.56536824,-0.13249673,-5.53,-29.960001,13.51,7,42.0,1.6898235
1784072427875,0.20057516,0.5826928,-0.14323312,6.3,-30.73,11.06,7,42.0,1.6898235
1784072427875,0.25254902,0.6885926,-0.13932897,12.25,-28.91,10.29,7,42.0,1.6898235
1784072427875,0.21741176,0.756427,-0.09272331,7.35,-26.32,13.09,7,42.0,1.6898235
1784072427875,0.25132897,0.8037647,-0.010980392,6.3,-26.81,18.13,7,42.0,1.6898235
1784072427875,0.34942046,0.90649235,-0.03660131,22.75,-29.61,23.8,7,42.0,1.6898235
1784072428041,0.3303878,1.0211765,-0.1483573,30.380001,-33.32,30.31,7,42.0,1.6898235
1784072428041,0.008540305,1.1102396,-0.35332462,35.28,-31.01,31.57,7,42.0,1.6898235
1784072428041,-0.5841569,1.149037,-0.4399477,6.65,-24.22,30.31,7,42.0,1.6898235
1784072428041,-0.755939,0.96749455,-0.06661438,3.29,-18.97,27.44,7,42.0,1.6898235
1784072428041,-0.08467103,0.94724184,0.364549,8.4,-23.66,24.64,8,48.0,1.6898235
1784072428041,0.49216557,0.95529413,0.89697605,19.39,-41.65,25.62,8,48.0,1.6898235
1784072428041,0.29305446,0.9477298,0.77497166,84.35,-64.54,11.69,8,48.0,1.6898235
1784072428041,-0.8328017,1.3906057,-0.13444881,86.31,-41.58,6.58,8,48.0,1.6898235
1784072428178,-1.0424052,1.2298039,-0.04562963,28.98,-19.39,31.01,8,48.0,1.6898235
1784072428178,-0.45263618,1.1131678,-0.15762964,31.29,-7.63,57.68,8,48.0,1.6898235
1784072428178,-0.021716775,1.17661,-0.5143704,0.14,3.43,73.22,8,48.0,1.6898235
1784072428178,0.5482876,1.3576645,0.05343791,-9.24,6.37,77.7,8,48.0,1.6898235
1784072428178,0.7300741,1.4352592,-0.0014640522,25.69,13.93,73.99,8,48.0,1.6898235
1784072428178,0.8737952,1.4686885,-0.07881482,36.96,21.84,60.48,8,48.0,1.7107822
1784072428178,0.7583791,1.4764967,-0.030989105,22.960001,19.88,42.35,8,48.0,1.7107822
1784072428178,0.5714684,1.342536,0.029281046,4.48,16.66,26.04,8,48.0,1.7107822
1784072428224,0.14396514,1.3073987,0.044653594,4.69,12.81,-7.28,8,48.0,1.7107822
1784072428224,-0.050021786,1.5257865,-0.13835293,3.5,16.8,-15.89,8,48.0,1.7107822
1784072428224,-0.20106317,1.4679564,-0.09272331,-14.21,19.04,-14.7,8,48.0,1.7107822
1784072428224,-0.24522875,1.4403834,-0.14616123,-24.99,23.24,-8.33,8,48.0,1.7107822
1784072428224,-0.2774379,1.3608366,-0.15177341,-37.31,27.16,-0.42000002,8,48.0,1.7107822
1784072428224,-0.2823181,1.286414,-0.09662745,-45.29,27.16,6.09,8,48.0,1.7107822
1784072428224,-0.28085402,1.2102832,-0.102239646,-46.9,24.15,10.92,8,48.0,1.7107822
1784072428224,-0.17788234,1.1566013,-0.08564706,-48.44,22.26,13.58,9,54.0,1.7107822
1784072428353,0.07369063,1.1063355,-0.1261525,-48.51,22.33,13.65,9,54.0,1.7107822
1784072428353,-0.039285403,1.0284967,-0.06856645,-49.35,17.92,11.13,9,54.0,1.7107822
1784072428353,-0.039529413,0.9450457,-0.023180827,-49.35,22.33,7.98,9,54.0,1.7107822
1784072428353,0.033429194,0.8630588,-0.0056122006,-46.13,21.56,3.15,9,54.0,1.7107822
1784072428353,0.04343355,0.7891242,0.009272331,-45.08,19.11,-1.4,9,54.0,1.7107822
1784072428353,0.06685839,0.7515468,0.038553376,-44.170002,18.83,-5.18,9,54.0,1.7107822
1784072428353,0.114928104,0.70982134,-0.03611329,-43.96,15.96,-7.56,9,54.0,1.7107822
1784072428353,0.023912854,0.7037211,-0.12346841,-44.31,11.83,-9.38,9,54.0,1.7107822
1784072428540,-0.027572986,0.6078257,-0.252061,-31.22,3.29,-10.36,9,54.0,1.7107822
1784072428540,-0.0924793,0.56390417,-0.31013507,-27.02,-1.05,-10.36,9,54.0,1.7107822
1784072428540,-0.18910675,0.53779525,-0.25816122,-30.87,-2.52,-8.75,9,54.0,1.7107822
1784072428540,-0.23546842,0.5199826,-0.20960349,-32.48,-3.43,-6.09,9,54.0,1.7107822
1784072428540,-0.22961222,0.5185185,-0.12078431,-31.85,-5.53,-2.8,9,54.0,1.7107822
1784072428540,-0.22424401,0.5260828,-0.010248366,-24.64,-9.31,0.21000001,9,54.0,1.7107822
1784072428540,-0.30183876,0.55048364,0.09199129,-10.64,-10.15,1.61,9,54.0,1.7107822
1784072428540,-0.363329,0.6019695,0.15982571,4.76,-5.6,1.61,9,54.0,1.7107822
1784072428669,-0.3757734,0.73739433,0.0783268,35.91,17.01,-1.12,9,54.0,1.7107822
1784072428669,-0.18178649,0.54901963,-0.051729847,34.58,15.54,-4.27,9,54.0,1.7107822
1784072428669,-0.116636164,0.59220916,-0.15640959,36.05,7.84,-10.01,9,54.0,1.7107822
1784072428669,0.15567756,0.5966013,-0.16983007,40.53,6.3,-16.31,9,54.0,1.7107822
1784072428669,0.42384312,0.61002177,-0.027084969,37.24,3.64,-22.54,9,54.0,1.7107822
1784072428669,0.37016124,0.5348671,0.5624401,40.39,8.26,-26.880001,9,54.0,1.7107822
1784072428669,-0.004392157,0.5485316,0.8037647,62.44,28.49,-34.65,9,54.0,1.7107822
1784072428669,-0.09955555,0.57561654,0.7256819,77.35,57.05,-38.920002,9,54.0,1.7107822
1784072428760,1.4240348,1.089255,-0.2823181,57.47,64.96,-57.05,9,54.0,1.8149532
1784072428760,1.0753464,0.8828235,-0.051729847,32.48,50.4,-92.05,9,54.0,1.8149532
1784072428760,0.37723747,0.8503704,0.0148845315,33.32,43.26,-110.04,10,60.0,1.8149532
1784072428760,0.010980392,1.1727059,0.06515033,64.4,29.26,-109.97,10,60.0,1.8149532
1784072428760,-0.32477558,1.7463703,-0.039529413,96.04,20.23,-94.5,10,60.0,1.8149532
1784072428760,-0.6885926,2.322475,-0.12517647,111.16,21.210001,-62.58,10,60.0,2.425638
1784072428760,-0.8206013,2.2678168,-0.40505445,76.44,29.33,-28.98,10,60.0,2.4454956
1784072428760,-0.5934292,1.8254293,-0.052461874,4.41,32.2,4.97,10,60.0,2.4454956
1784072428895,-0.13127668,1.8037125,-0.13127668,-9.8,54.53,20.86,10,60.0,2.4454956
1784072428895,-0.18325055,1.8146927,-0.06563834,-10.15,55.79,4.97,10,60.0,2.4454956
1784072428895,-0.10882789,1.8046885,-0.053925924,-15.82,43.19,-12.88,10,60.0,2.4454956
1784072428895,-0.15177341,1.7783355,-0.10199564,-19.81,27.93,-25.55,10,60.0,2.4454956
1784072428895,-0.20252723,1.7597908,-0.14469717,-25.97,14.42,-29.12,10,60.0,2.4454956
1784072428895,-0.20813943,1.6778039,-0.15567756,-37.38,3.3600001,-26.11,10,60.0,2.4454956
1784072428895,-0.21448365,1.5760523,-0.16397385,-55.510002,-9.1,-20.72,10,60.0,2.4454956
1784072428895,-0.30452287,1.485525,-0.11834422,-59.43,-14.84,-15.12,10,60.0,2.4454956
1784072428989,-0.23766449,1.2759216,-0.08979521,-48.65,-8.4,-4.13,10,60.0,2.4454956
1784072428989,-0.16983007,1.2061352,-0.15055338,-43.47,-8.4,0.35,10,60.0,2.4454956
1784072428989,-0.1483573,1.0951111,-0.117124185,-41.16,-5.6,5.18,11,66.0,2.4454956
1784072428989,-0.090039216,1.035817,-0.13615687,-41.16,-6.16,10.29,11,66.0,2.4454956
1784072428989,-0.04782571,0.95553815,-0.12737255,-40.670002,-8.19,15.4,11,66.0,2.4454956
1784072428989,0.05294989,0.8996601,-0.1903268,-41.3,-20.86,18.34,11,66.0,2.4454956
1784072428989,-0.018056644,0.77985185,-0.2991547,-35.63,-18.41,20.86,11,66.0,2.4454956
1784072428989,-0.022204792,0.7054292,-0.34990847,-36.68,-18.97,22.75,11,66.0,2.4454956
1784072429212,0.1259085,0.46898472,-0.21741176,-19.67,-25.62,23.73,11,66.0,2.4454956
1784072429212,0.17153813,0.41554683,-0.2552331,-6.93,-25.62,25.34,11,66.0,2.4454956
1784072429212,0.23790848,0.44458386,-0.25962526,-5.11,-34.37,24.64,11,66.0,2.4454956
1784072429212,0.012200436,0.14982136,0.04148148,-9.24,-33.46,24.01,11,66.0,2.4454956
1784072429212,0.280366,0.30745098,0.0036601308,-17.15,-30.87,23.38,11,66.0,2.4454956
1784072429212,0.30720696,0.22497602,0.14518519,-19.18,-37.24,21.0,11,66.0,2.4454956
1784072429212,0.26255336,0.11151198,0.08930719,-8.26,-38.920002,17.92,11,66.0,2.4454956
1784072429212,0.18861873,0.03391721,-0.019276688,16.94,-33.53,15.68,11,66.0,2.4454956
1784072429525,0.08759913,-0.17495424,-0.13957298,17.710001,-13.440001,10.78,11,66.0,2.4454956
1784072429525,0.15372549,-0.21497166,0.04148148,11.4800005,-4.13,9.66,11,66.0,2.4454956
1784072429525,0.31013507,-0.17690632,0.67004794,13.440001,-5.04,10.5,11,66.0,2.4454956
1784072429525,0.6949368,-0.19447495,1.8359215,21.84,-39.69,12.39,11,66.0,2.4454956
1784072429525,1.0594858,-0.11639216,1.8561743,80.43,-75.6,23.1,11,66.0,2.4454956
1784072429525,0.24498475,-0.12810457,0.77009153,126.35,-89.39,26.04,12,72.0,2.4454956
1784072429525,-1.512366,-0.6314946,-0.49997383,94.92,-69.51,5.95,12,72.0,2.4454956
1784072429525,-1.3969499,-0.12346841,-0.08101089,69.79,-52.5,2.73,12,72.0,2.4454956
1784072429660,-0.5712244,2.0931067,-0.19813508,32.06,-14.56,87.29,12,72.0,2.4454956
1784072429660,-0.7539869,4.461943,-0.23132028,110.18,-15.82,128.38,12,72.0,4.5311084
1784072429660,0.9040523,4.112523,-1.1129237,203.91,11.55,109.340004,12,72.0,4.5311084
1784072429660,1.5216383,1.8715469,-0.3757734,-38.64,-10.5,71.19,12,72.0,4.5311084
1784072429660,0.8711111,1.3286275,0.59757733,-53.34,-7.42,28.98,12,72.0,4.5311084
1784072429660,0.31306317,1.4472157,-0.14103703,-8.12,12.46,10.15,12,72.0,4.5311084
1784072429660,0.11639216,1.5858127,0.013908497,-4.34,15.61,8.12,12,72.0,4.5311084
1784072429660,0.07149455,1.8974118,-0.20374727,-1.33,12.25,8.19,12,72.0,4.5311084
1784072429705,-0.17568627,1.8695947,-0.11736819,-28.28,0.84000003,19.95,12,72.0,4.5311084
1784072429705,-0.27865794,1.8813072,-0.21936384,-29.89,5.18,27.09,12,72.0,4.5311084
1784072429705,-0.27182573,1.7990763,-0.18910675,-34.16,9.94,26.74,12,72.0,4.5311084
1784072429705,-0.24693681,1.6990327,-0.14396514,-38.43,14.0,18.2,12,72.0,4.5311084
1784072429705,-0.2466928,1.5809325,-0.08467103,-45.85,12.6,8.05,12,72.0,4.5311084
1784072429705,-0.097603485,1.514562,-0.12200436,-51.8,14.84,3.29,12,72.0,4.5311084
1784072429705,-0.13810892,1.344,-0.12664051,-50.26,4.69,-3.57,12,72.0,4.5311084
1784072429705,-0.19179085,1.3215512,-0.17763834,-46.13,-5.04,-10.15,12,72.0,4.5311084
1784072429841,-0.167878,1.1419607,-0.25035295,-35.91,0.63,-21.49,13,78.0,4.5311084
1784072429841,-0.13054466,0.9997037,-0.2547451,-21.91,5.39,-27.58,13,78.0,4.5311084
1784072429841,-0.09833551,0.93967754,-0.4904575,-4.69,3.5,-31.85,13,78.0,4.5311084
1784072429841,0.043677557,0.7964444,-0.46532464,-13.09,-0.7,-34.37,13,78.0,4.5311084
1784072429841,0.20033115,0.70811325,-0.40432245,-16.94,5.18,-35.49,13,78.0,4.5311084
1784072429841,0.19227886,0.643451,-0.38211766,-39.76,-8.89,-38.36,13,78.0,4.5311084
1784072429841,0.15201743,0.559756,-0.19252288,-30.03,-5.67,-37.170002,13,78.0,4.5311084
1784072429841,0.12078431,0.47435296,-0.15104139,-27.51,-2.24,-32.69,13,78.0,4.5311084
1784072429886,-0.11175599,0.39529413,0.13640088,2.38,29.75,-9.24,13,78.0,4.5311084
1784072429886,-0.14006099,0.28646624,0.18935075,20.58,38.08,5.04,13,78.0,4.5311084
1784072429886,-0.14884531,0.25962526,0.012200436,40.74,43.82,19.11,13,78.0,4.5311084
1784072429886,0.014396514,0.032453157,-0.020252723,43.61,39.76,31.08,13,78.0,4.5311084
1784072429886,0.034893245,-0.031477123,-0.15860566,15.96,24.15,37.31,13,78.0,4.5311084
1784072429886,0.014152505,-0.21082354,-0.09394335,-4.69,13.58,39.2,13,78.0,4.5311084
1784072429886,0.026108934,-0.34332028,-0.005856209,-9.1,6.93,37.45,13,78.0,4.5311084
1784072429886,-0.042213507,-0.39016995,0.53023094,-4.2,10.78,33.53,13,78.0,4.5311084
1784072430019,-0.20691939,-0.36796516,1.5250545,62.86,76.51,12.88,13,78.0,4.5311084
1784072430019,-0.5207146,-0.33502397,1.2544489,113.89,117.74,3.85,13,78.0,4.5311084
1784072430019,0.9164967,-0.19471896,0.07979085,107.03,123.62,4.13,14,84.0,4.5311084
1784072430019,1.652671,-0.16934206,0.04343355,40.74,110.04,-7.35,14,84.0,4.5311084
1784072430019,1.2715294,0.45214814,0.065394334,42.21,83.79,-44.03,14,84.0,4.5311084
1784072430019,0.9182047,1.734414,-0.25572112,41.3,45.57,-124.39,14,84.0,4.5311084
1784072430019,0.420183,2.46034,0.14640523,82.6,27.37,-219.66,14,84.0,4.5311084
1784072430019,-0.5151024,4.142536,-0.44360784,192.99,-32.69,-252.7,14,84.0,4.5311084
1784072430200,-2.352,1.90522,-0.65150326,10.92,47.81,-59.78,14,84.0,4.5311084
1784072430200,-0.98945534,1.3696209,-0.014152505,-132.44,29.54,-4.27,14,84.0,4.5311084
1784072430200,-0.4511721,1.5741003,0.22522004,-68.95,35.0,8.75,14,84.0,4.5311084
1784072430200,-0.32062745,1.7876079,-0.336,-13.440001,43.26,3.85,14,84.0,4.5311084
1784072430200,-0.20106317,1.8571503,-0.18739869,-8.05,40.18,-13.3,14,84.0,4.5311084
1784072430200,-0.054413944,1.9723225,-0.18154249,-6.44,32.9,-31.36,14,84.0,4.5311084
1784072430200,0.01512854,1.876183,-0.18935075,-11.34,21.0,-35.7,14,84.0,4.5311084
1784072430200,0.001708061,1.9176644,-0.22741611,-25.2,5.81,-28.42,14,84.0,4.5311084
1784072430337,-0.06100218,1.5809325,-0.1456732,-69.44,-22.12,-10.29,14,84.0,4.5311084
1784072430337,-0.106387794,1.430623,-0.13396078,-61.88,-19.81,-5.04,14,84.0,4.5311084
1784072430337,-0.1820305,1.3818214,-0.22253595,-43.75,-9.94,-0.56,14,84.0,4.5311084
1784072430337,-0.18715468,1.2576208,-0.15274945,-34.02,-1.4,5.46,14,84.0,4.5311084
1784072430337,-0.1515294,1.176366,-0.1905708,-21.56,5.81,10.43,14,84.0,4.5311084
1784072430337,-0.15811765,1.0836427,-0.15592156,-21.7,6.93,14.91,15,90.0,4.5311084
1784072430337,-0.09394335,1.011172,-0.10687582,-28.07,0.21000001,19.18,15,90.0,4.5311084
1784072430337,-0.074666664,0.9079564,-0.23693246,-31.36,-9.17,23.73,15,90.0,4.5311084
1784072430517,-0.08467103,0.6278344,-0.21277559,-41.86,-24.92,28.98,15,90.0,4.5311084
1784072430517,-0.06417429,0.5151024,-0.117124185,-34.79,-27.09,32.62,15,90.0,4.5311084
1784072430517,-0.0039041394,0.46849674,-0.06612636,-25.83,-33.74,36.33,15,90.0,4.5311084
1784072430517,0.06344226,0.35405663,0.03025708,-11.9,-47.04,37.73,15,90.0,4.5311084
1784072430517,0.15030937,0.3164793,0.06661438,5.88,-51.31,38.64,15,90.0,4.5311084
1784072430517,0.15738562,0.30769497,0.004392157,12.18,-52.64,36.96,15,90.0,4.5311084
1784072430517,0.11395206,0.11273203,0.033429194,6.86,-50.75,30.380001,15,90.0,4.5311084
1784072430517,0.15738562,0.05563399,0.040505446,8.75,-43.89,21.98,15,90.0,4.5311084
1784072430604,0.2779259,-0.4872854,-0.003416122,-13.86,-29.61,2.8,15,90.0,4.5311084
1784072430604,0.22961222,-0.37918955,-0.003416122,-7.4900002,-21.49,-7.35,15,90.0,4.5311084
1784072430604,0.28475818,-0.363817,0.23937255,-0.56,-15.89,-14.35,15,90.0,4.5311084
1784072430604,0.6258823,-0.5297429,1.3989019,-23.24,-38.57,-14.9800005,15,90.0,4.5311084
1784072430604,0.9848192,-0.39090198,2.1138475,4.06,-72.17,-9.31,15,90.0,4.5311084
1784072430604,1.0409412,0.021228759,1.2254118,79.87,-92.05,10.15,15,90.0,4.5311084
1784072430604,-0.70811325,-0.44360784,0.053681917,112.35,-88.340004,5.39,16,96.0,4.5311084
1784072430604,-1.4518518,-0.35381263,-0.3884619,102.2,-60.55,-19.39,16,96.0,4.5311084
1784072430650,-0.5517037,0.811329,0.109071895,29.05,-12.67,22.19,17,102.0,4.5311084
1784072430650,-0.27694988,1.597769,0.11102396,1.82,-7.77,75.11,17,102.0,4.5311084
1784072430650,-0.73519826,4.48244,-1.3710849,156.24,-13.51,128.87,17,102.0,4.7447505
1784072430650,0.08857516,3.724549,-1.8847233,164.71,6.16,120.05,17,102.0,4.7447505
1784072430650,1.3935338,2.215599,0.075886704,-135.8,-48.51,96.53,17,102.0,4.7447505
1784072430650,0.44409585,1.1114597,0.5729325,-66.29,-37.03,58.59,17,102.0,4.7447505
1784072430650,0.18251853,1.7815075,-0.33209586,35.28,-16.94,34.02,17,102.0,4.7447505
1784072430650,0.088331155,2.0650456,-0.5092462,-24.85,-17.64,19.11,17,102.0,4.7447505
1784072430785,-0.13859694,1.8488541,-0.19789107,-49.91,-26.95,10.08,17,102.0,4.7447505
1784072430785,-0.26182136,1.8734988,-0.34161222,-47.95,-21.91,6.37,17,102.0,4.7447505
1784072430785,-0.21423966,1.8066404,-0.22546406,-52.85,-12.46,-0.56,17,102.0,4.7447505
1784072430785,-0.16397385,1.7612549,-0.15543355,-46.55,-5.67,-10.01,17,102.0,4.7447505
1784072430785,-0.1261525,1.6673114,-0.12176035,-40.11,-3.43,-17.15,17,102.0,4.7447505
1784072430785,-0.14372113,1.4930893,-0.09906754,-29.33,11.69,-19.53,17,102.0,4.7447505
1784072430785,-0.20838344,1.5043137,-0.2830501,-27.37,10.15,-22.54,17,102.0,4.7447505
1784072430785,-0.12737255,1.3598605,-0.25328103,-29.4,8.19,-25.9,17,102.0,4.7447505
1784072430919,-0.09345534,1.0799825,-0.26694554,-25.2,17.78,-35.91,18,108.0,4.7447505
1784072430919,-0.06612636,0.96700656,-0.2437647,-20.16,23.52,-39.55,18,108.0,4.7447505
1784072430919,0.03660131,0.94724184,-0.28988236,-13.51,18.83,-42.63,18,108.0,4.7447505
1784072430919,0.14225708,0.88550764,-0.25010893,-19.18,7.84,-45.22,18,108.0,4.7447505
1784072430919,0.22082789,0.78570807,-0.25596514,-38.43,-8.54,-46.27,18,108.0,4.7447505
1784072430919,0.26743355,0.64637905,-0.20862745,-54.32,-15.26,-44.52,18,108.0,4.7447505
1784072430919,0.1093159,0.5775686,-0.15348148,-46.97,-12.67,-41.51,18,108.0,4.7447505
1784072430919,0.106387794,0.4287233,-0.05661002,-23.45,-5.53,-35.28,18,108.0,4.7447505
1784072430962,-0.09077124,0.25596514,0.1371329,35.420002,23.73,-15.47,18,108.0,4.7447505
1784072430962,-0.19935511,0.075886704,0.19008279,45.36,36.4,-3.3600001,18,108.0,4.7447505
1784072430962,-0.20447929,-0.04562963,0.14396514,80.15,56.49,10.36,18,108.0,4.7447505
1784072430962,-0.1988671,-0.279878,0.0021960784,80.85,57.68,23.52,18,108.0,4.7447505
1784072430962,-0.068078436,-0.4265272,-0.063686274,60.9,48.72,34.23,18,108.0,4.7447505
1784072430962,0.15592156,-0.5460915,-0.042945534,35.56,31.29,40.6,18,108.0,4.7447505
1784072430962,0.3189194,-0.61246186,0.039041396,24.57,13.93,43.26,18,108.0,4.7447505
1784072430962,0.23864052,-0.587573,0.39968628,7.56,10.92,43.05,18,108.0,4.7447505
1784072431191,-0.2935425,-0.3806536,2.1172636,46.48,99.82,20.86,18,108.0,4.7447505
1784072431191,-0.7505708,-0.4609325,1.5209063,126.91,148.96,17.64,18,108.0,4.7447505
1784072431191,1.6097255,-0.041237473,-0.67468405,112.21,123.83,18.34,18,108.0,4.7447505
1784072431191,1.7466145,-0.17324619,0.25986928,24.92,94.64,14.63,18,108.0,4.7447505
1784072431191,1.2773856,0.71958166,-0.11346405,56.28,48.44,-22.89,18,108.0,4.7447505
1784072431191,0.85622656,2.0589454,-0.20399128,4.9,-6.65,-118.58,18,108.0,4.7447505
1784072431191,0.29842266,2.831233,-0.6485751,213.08,-27.3,-248.01,18,108.0,4.7447505
1784072431191,-0.6893246,7.083329,-0.7947364,163.66,-93.45,-238.21,18,108.0,7.1610284
1784072431238,-1.6836601,1.4167147,0.11444009,-163.31,18.2,-24.99,18,108.0,7.1610284
1784072431238,-0.68712854,1.3586406,0.5829368,-127.26,27.79,7.98,18,108.0,7.1610284
1784072431238,-0.41554683,1.9547538,-0.3860218,-9.66,41.37,17.78,18,108.0,7.1610284
1784072431238,-0.25596514,1.9957473,-0.21643573,-18.34,38.08,7.42,18,108.0,7.1610284
1784072431238,-0.037089325,2.071634,-0.14347713,-17.57,29.05,-13.72,18,108.0,7.1610284
1784072431238,0.041237473,2.1060393,-0.23156427,-15.68,17.22,-23.24,18,108.0,7.1610284
1784072431238,0.05148584,1.9379172,-0.16031373,-28.210001,-0.07,-20.44,18,108.0,7.1610284
1784072431238,-0.010980392,1.984767,-0.24913289,-35.63,-19.460001,-10.57,18,108.0,7.1610284
1784072431280,-0.17275818,1.5540915,-0.2742658,-60.9,-48.37,11.76,18,108.0,7.1610284
1784072431280,-0.2603573,1.3937777,-0.24474074,-42.7,-43.61,17.15,18,108.0,7.1610284
1784072431280,-0.25450107,1.3256993,-0.34112418,-25.9,-36.33,21.49,18,108.0,7.1610284
1784072431280,-0.2435207,1.2200435,-0.29866666,-21.98,-31.15,23.52,18,108.0,7.1610284
1784072431280,-0.224488,1.0885228,-0.17007408,-16.03,-34.37,24.57,19,114.0,7.1610284
1784072431280,-0.21301961,0.92210895,-0.39285403,-3.3600001,-36.89,28.42,19,114.0,7.1610284
1784072431280,-0.16006972,0.89307183,-0.31769934,-9.24,-49.07,31.92,19,114.0,7.1610284
1784072431280,-0.08564706,0.71396947,-0.3186754,-8.4,-62.23,36.89,19,114.0,7.1610284
1784072431327,-0.064906314,0.4599564,-0.042945534,-17.57,-69.79,46.41,19,114.0,7.1610284
1784072431327,-0.048069715,0.29403052,0.028549021,1.96,-77.42,50.75,19,114.0,7.1610284
1784072431327,-0.027816994,0.24400872,-0.042701527,27.02,-78.61,51.94,19,114.0,7.1610284
1784072431327,0.12712854,0.17983443,-0.11102396,27.51,-72.38,49.56,19,114.0,7.1610284
1784072431327,0.34332028,0.025620917,0.013664488,4.62,-64.54,41.37,19,114.0,7.1610284
1784072431327,0.5534117,-0.09833551,0.18251853,-19.95,-58.31,26.53,19,114.0,7.1610284
1784072431327,0.63661873,-0.21765578,0.27621785,-1.26,-50.4,10.43,19,114.0,7.1610284
1784072431327,0.58806103,-0.5741525,0.22570805,11.13,-43.05,-8.68,19,114.0,7.1610284
1784072431374,0.3186754,-0.48435733,-0.039041396,53.34,-17.92,-31.43,19,114.0,7.1610284
1784072431374,0.15006536,-0.6978649,-0.09687146,73.78,-2.03,-34.02,19,114.0,7.1610284
1784072431374,0.29500654,-0.8437821,0.10175163,-13.440001,-5.67,-30.45,19,114.0,7.1610284
1784072431374,0.9035643,-0.36796516,1.9203485,-114.87,-43.12,-20.86,19,114.0,7.1610284
1784072431374,1.5396949,-0.18813072,2.937377,17.36,-91.07,-2.94,19,114.0,7.1610284
1784072431374,0.37918955,0.15567756,0.79449236,225.54001,-99.54,11.97,20,120.0,7.1610284
1784072431374,-1.6294901,-0.05929412,-0.8645229,175.21,-61.88,-7.84,20,120.0,7.1610284
1784072431374,-1.1902745,0.23766449,0.13591287,92.12,-38.85,-3.78,20,120.0,7.1610284
1784072431419,-1.0324008,1.9684182,-1.1290283,27.37,14.77,128.24,20,120.0,7.1610284
1784072431419,-0.8079129,4.9380045,-0.31281918,41.72,3.08,216.58,20,120.0,7.1610284
1784072431419,0.6044096,4.1806016,-1.2800697,157.5,36.47,182.77,20,120.0,7.1610284
1784072431419,1.9764705,2.3112504,-1.1497691,-93.24,-25.55,110.6,20,120.0,7.1610284
1784072431419,0.615146,1.0782745,1.2085751,-121.87,-19.32,62.3,20,120.0,7.1610284
1784072431419,0.19862309,1.8007843,-0.58781695,-9.24,2.24,34.09,20,120.0,7.1610284
1784072431419,0.13054466,1.9181525,-0.44799998,-48.3,-2.59,19.460001,20,120.0,7.1610284
1784072431419,-0.07125054,1.984767,-0.14225708,-79.45,-7.07,11.9,20,120.0,7.1610284
1784072431640,-0.38724184,1.8212811,-0.37723747,-62.37,-9.03,7.91,20,120.0,7.1610284
1784072431640,-0.35503268,1.818841,-0.27719387,-62.02,-3.43,3.64,20,120.0,7.1610284
1784072431640,-0.35722876,1.7270937,-0.18349455,-54.25,-1.12,-3.22,20,120.0,7.1610284
1784072431640,-0.336,1.5989891,-0.14225708,-40.11,-4.13,-7.42,20,120.0,7.1610284
1784072431640,-0.34576035,1.5365229,-0.21497166,-30.03,-3.99,-8.68,20,120.0,7.1610284
1784072431640,-0.3223355,1.4164706,-0.22546406,-23.17,7.7,-7.07,20,120.0,7.1610284
1784072431640,-0.20130719,1.2427365,-0.27841392,-26.39,2.1,-8.82,20,120.0,7.1610284
1784072431640,-0.1371329,1.2080872,-0.24498475,-26.74,3.08,-15.33,20,120.0,7.1610284
1784072431775,0.070030496,0.96481043,-0.34649238,-4.27,16.52,-35.49,21,125.99999,7.1610284
1784072431775,0.14640523,0.8984401,-0.32721567,-16.52,15.4,-41.93,21,125.99999,7.1610284
1784072431775,0.35503268,0.7217778,-0.26694554,-39.55,3.08,-46.76,21,125.99999,7.1610284
1784072431775,0.3608889,0.5941612,-0.2269281,-53.41,-11.62,-50.47,21,125.99999,7.1610284
1784072431775,0.30452287,0.5143704,-0.124688454,-35.63,-8.4,-50.4,21,125.99999,7.1610284
1784072431775,0.19179085,0.5094902,-0.13274074,-33.53,-6.16,-48.3,21,125.99999,7.1610284
1784072431775,0.23742047,0.10004357,0.16836601,-27.37,-0.21000001,-40.18,21,125.99999,7.1610284
1784072431775,-0.03611329,0.23473638,0.08345098,2.45,12.53,-26.67,21,125.99999,7.1610284
1784072432089,-0.1542135,-0.33941612,0.33941612,72.66,49.49,14.42,21,125.99999,7.1610284
1784072432089,-0.18569063,-0.3503965,0.22033986,91.840004,64.4,35.420002,21,125.99999,7.1610284
1784072432089,-0.1066318,-0.4087146,0.02830501,88.83,66.43,50.61,21,125.99999,7.1610284
1784072432089,0.083939,-0.560976,0.06832244,54.18,53.97,57.96,21,125.99999,7.1610284
1784072432089,0.2435207,-0.61709803,0.09125926,34.72,44.03,60.41,21,125.99999,7.1610284
1784072432089,0.32623965,-0.53169495,0.07539869,23.24,38.29,58.59,21,125.99999,7.1610284
1784072432089,0.27548584,-0.5380392,0.58318084,-6.7200003,46.27,53.06,21,125.99999,7.1610284
1784072432089,0.16568191,-0.3891939,1.8000523,-19.53,81.48,40.74,21,125.99999,7.1610284
1784072432134,0.015372549,-0.09613943,0.7025011,175.77,177.38,10.5,22,132.0,7.1610284
1784072432134,2.1367843,-0.025376907,-0.81157297,78.12,159.32,-4.69,22,132.0,7.1610284
1784072432134,1.9164444,0.054901965,0.61294985,31.29,122.99,-31.710001,22,132.0,7.1610284
1784072432134,1.1348845,1.7605228,-0.5707364,80.36,59.85,-103.53,22,132.0,7.1610284
1784072432134,0.6868845,2.711669,0.3052549,48.79,13.65,-228.34,22,132.0,7.1610284
1784072432134,-0.7613072,3.6010807,-0.96749455,157.08,-3.99,-309.26,22,132.0,7.1610284
1784072432134,-1.8103006,6.000174,-0.35234857,137.83,36.26,-220.15,22,132.0,7.1610284
1784072432134,-3.252392,1.821525,-1.7602789,2.94,71.12,-91.77,22,132.0,7.1610284
1784072432222,-0.74886274,1.6753638,0.22546406,-102.55,57.75,3.29,22,132.0,7.1610284
1784072432222,-0.45824835,2.072854,-0.5763486,-23.66,65.31,2.24,22,132.0,7.1610284
1784072432222,-0.103947714,1.9545099,-0.06954248,-22.19,57.89,-17.01,22,132.0,7.1610284
1784072432222,-0.052461874,2.1711895,-0.3604009,6.51,45.920002,-34.51,22,132.0,7.1610284
1784072432222,-0.065882355,2.0911548,-0.35283658,-18.34,22.54,-34.37,22,132.0,7.1610284
1784072432222,-0.14176907,1.9625622,-0.26962963,-35.56,-2.17,-25.2,22,132.0,7.1610284
1784072432222,-0.22204792,1.9013159,-0.3181874,-43.96,-24.01,-11.2,22,132.0,7.1610284
1784072432222,-0.32843572,1.7061088,-0.39016995,-58.73,-44.1,-1.61,22,132.0,7.1610284
1784072432271,-0.21204355,1.3391198,-0.4121307,-42.56,-39.62,7.84,22,132.0,7.1610284
1784072432271,-0.1259085,1.1902745,-0.3557647,-27.23,-26.460001,12.04,22,132.0,7.1610284
1784072432271,-0.083206974,1.1160959,-0.25401306,-20.93,-20.93,15.12,23,138.0,7.1610284
1784072432271,-0.11151198,1.0023878,-0.20301525,-6.7200003,-18.48,20.02,23,138.0,7.1610284
1784072432271,-0.08881917,0.96529853,-0.2681656,-2.59,-26.11,26.11,23,138.0,7.1610284
1784072432271,-0.1202963,0.78058386,-0.26840958,-16.31,-38.43,31.78,23,138.0,7.1610284
1784072432271,-0.0812549,0.6302745,-0.2911024,-35.07,-39.9,35.91,23,138.0,7.1610284
1784072432271,-0.09296732,0.48338124,-0.09052724,-39.06,-38.64,38.29,23,138.0,7.1610284
1784072432359,0.08418301,0.26694554,0.089551196,-2.8,-49.420002,40.81,23,138.0,7.1610284
1784072432359,0.25425708,0.2691416,-0.03196514,0.42000002,-51.45,40.670002,23,138.0,7.1610284
1784072432359,0.45532027,-0.0029281045,0.010248366,-22.33,-47.11,35.14,23,138.0,7.1610284
1784072432359,0.6283224,-0.2942745,0.30354682,-21.7,-39.9,19.88,23,138.0,7.1610284
1784072432359,0.6698039,-0.32428756,0.43067536,28.91,-38.57,-2.24,23,138.0,7.1610284
1784072432359,0.55219173,-0.52388674,0.37430936,72.38,-35.14,-22.47,23,138.0,7.1610284
1784072432359,0.29793465,-0.32965577,0.083939,144.34,-23.38,-34.93,23,138.0,7.1610284
1784072432359,0.25401306,-0.8828235,-0.033673204,96.18,-13.51,-40.74,23,138.0,7.1610284
1784072432448,0.14982136,-1.0089761,-0.25864923,-6.51,0.84000003,-34.3,23,138.0,7.1610284
1784072432448,0.115904145,-0.6861525,0.052461874,-63.56,-8.19,-30.17,23,138.0,7.1610284
1784072432448,0.6966449,-0.14616123,1.8671547,-80.08,-53.34,-23.31,23,138.0,7.1610284
1784072432448,1.5660479,0.015616558,3.612549,46.2,-97.02,-6.65,23,138.0,7.1610284
1784072432448,0.56634426,0.32721567,0.72861004,237.58,-97.86,16.52,24,144.0,7.1610284
1784072432448,-2.155085,0.21301961,-1.1631895,176.75,-56.84,-4.48,24,144.0,7.1610284
1784072432448,-1.5660479,0.41359478,0.010004357,91.35,-35.28,0.84000003,24,144.0,7.1610284
1784072432448,-1.1307365,2.464488,0.13054466,88.27,-9.52,63.420002,24,144.0,7.1610284
1784072432717,-0.48020917,6.155608,-0.37723747,97.02,31.43,233.24,24,144.0,7.1610284
1784072432717,1.9730544,3.834353,-1.624366,152.25,8.47,163.52,24,144.0,7.1610284
1784072432717,1.683904,1.7190415,-0.84231806,-133.14,-48.02,93.52,24,144.0,7.1610284
1784072432717,0.5146144,1.2368802,1.1465969,-137.41,-21.210001,58.94,24,144.0,7.1610284
1784072432717,0.29232246,1.791756,-0.4904575,-6.7200003,-6.86,32.9,24,144.0,7.1610284
1784072432717,-0.027084969,1.9964793,-0.48191723,-55.510002,-15.68,16.24,24,144.0,7.1610284
1784072432717,-0.23790848,2.0050194,-0.0868671,-90.02,-22.4,7.84,24,144.0,7.1610284
1784072432717,-0.43018737,1.9547538,-0.28353813,-52.01,-24.99,5.39,24,144.0,7.1610284
1784072432808,-0.43921572,1.8583704,-0.31428322,-53.13,-10.92,-7.28,24,144.0,7.1610284
1784072432808,-0.29525056,1.8305534,-0.2466928,-45.64,-5.32,-18.76,24,144.0,7.1610284
1784072432808,-0.20789543,1.763695,-0.2710937,-31.01,-0.63,-24.22,24,144.0,7.1610284
1784072432808,-0.21643573,1.680732,-0.34917647,-26.74,6.79,-25.97,24,144.0,7.1610284
1784072432808,-0.13615687,1.4745446,-0.30110675,-28.98,10.08,-26.32,24,144.0,7.1610284
1784072432808,-0.038553376,1.3620566,-0.34917647,-27.09,9.59,-26.04,24,144.0,7.1610284
1784072432808,0.0036601308,1.1978388,-0.28915033,-27.09,12.18,-28.0,24,144.0,7.1610284
1784072432808,0.054901965,1.0465534,-0.23937255,-23.87,18.76,-32.62,25,150.0,7.1610284
1784072432897,0.12566449,0.84012204,-0.20813943,-24.85,19.04,-39.55,25,150.0,7.1610284
1784072432897,0.18544662,0.7378824,-0.17422222,-34.58,7.84,-43.05,25,150.0,7.1610284
1784072432897,0.36820915,0.52803487,-0.09443137,-53.06,-8.05,-45.85,25,150.0,7.1610284
1784072432897,0.24083659,0.53925925,-0.14616123,-57.96,-18.34,-48.3,25,150.0,7.1610284
1784072432897,0.18081045,0.37064925,-0.075154684,-45.01,-15.26,-48.16,25,150.0,7.1610284
1784072432897,0.10297168,0.2710937,-0.06417429,-41.23,-12.18,-44.87,25,150.0,7.1610284
1784072432897,-0.018788671,0.15494554,0.037333332,9.03,-2.24,-35.420002,25,150.0,7.1610284
1784072432897,-0.14616123,0.03611329,0.0727146,29.05,-0.56,-20.44,25,150.0,7.1610284
1784072432942,-0.38211766,-0.29281047,0.37845752,80.36,21.77,18.76,25,150.0,7.1610284
1784072432942,-0.3059869,-0.3787015,0.23058824,105.56,36.12,39.62,25,150.0,7.1610284
1784072432942,-0.16397385,-0.69835293,0.1315207,76.16,30.87,54.670002,25,150.0,7.1610284
1784072432942,0.0029281045,-0.7190937,0.040749453,32.27,23.38,64.19,25,150.0,7.1610284
1784072432942,0.34307626,-0.7039651,-0.027328975,13.72,19.6,65.87,25,150.0,7.1610284
1784072432942,0.44385186,-0.5060741,0.16104576,-5.88,15.4,60.55,25,150.0,7.1610284
1784072432942,0.34063616,-0.27255774,0.8367059,-12.18,26.04,50.61,25,150.0,7.1610284
1784072432942,0.0729586,-0.37089324,2.1209238,-2.73,71.75,36.05,25,150.0,7.1610284
1784072432991,0.8191372,0.23327233,-0.3194074,220.71,139.37,19.460001,26,156.0,7.1610284
1784072432991,2.0018475,0.14420915,-0.4811852,65.45,112.7,12.53,26,156.0,7.1610284
1784072432991,1.6873202,1.0026318,0.18081045,49.98,70.91,-34.09,26,156.0,7.1610284
1784072432991,1.3408278,3.1147711,-0.3535686,59.78,10.22,-154.98,26,156.0,7.1610284
1784072432991,0.3052549,2.635538,-1.0765665,131.46,-13.86,-271.67,26,156.0,7.1610284
1784072432991,-0.8284096,4.76305,-0.33258387,-29.19,-40.74,-274.47,26,156.0,7.1610284
1784072432991,-2.7804792,4.231355,0.10199564,101.92,40.6,-155.05,26,156.0,7.1610284
1784072432991,-2.0852985,1.8105447,-1.204671,-74.69,53.13,-41.23,26,156.0,7.1610284
1784072433037,-0.55804795,1.9064401,-0.32965577,-32.2,79.590004,11.34,26,156.0,7.1610284
1784072433037,-0.35430065,1.9305971,-0.3389281,-17.36,82.67,4.69,26,156.0,7.1610284
1784072433037,-0.06734641,2.010388,-0.051973857,-8.61,73.57,-18.06,26,156.0,7.1610284
1784072433037,0.021960784,2.1719215,-0.3335599,12.81,58.66,-32.13,26,156.0,7.1610284
1784072433037,-0.027572986,2.101159,-0.32355556,-10.5,31.64,-29.05,26,156.0,7.1610284
1784072433037,-0.13908496,2.0977428,-0.34795642,-29.26,2.45,-17.5,26,156.0,7.1610284
1784072433037,-0.25132897,1.8898475,-0.4226231,-59.36,-19.6,-2.8,26,156.0,7.1610284
1784072433037,-0.34600437,1.5465271,-0.32477558,-69.44,-41.93,4.9,26,156.0,7.1610284
1784072433217,-0.3311198,1.2942222,-0.42579523,-34.79,-37.87,11.97,26,156.0,7.1610284
1784072433217,-0.251817,1.1282963,-0.4226231,-25.9,-29.12,14.35,26,156.0,7.1610284
1784072433217,-0.224488,1.0575337,-0.24327669,-9.52,-26.04,16.87,27,162.0,7.1610284
1784072433217,-0.1066318,1.091939,-0.2991547,-3.57,-26.880001,23.1,27,162.0,7.1610284
1784072433217,-0.03562527,0.9323573,-0.18349455,2.17,-40.04,32.13,27,162.0,7.1610284
1784072433217,-0.07198257,0.84402615,-0.33160785,-15.68,-59.64,42.07,27,162.0,7.1610284
1784072433217,-0.14664924,0.56536824,-0.224488,-38.99,-61.81,48.86,27,162.0,7.1610284
1784072433217,-0.21911982,0.4148148,-0.119564265,-36.47,-56.91,53.97,27,162.0,7.1610284
1784072433307,-0.12908061,0.17275818,0.09565142,9.31,-60.83,58.94,27,162.0,7.1610284
1784072433307,0.08613508,0.20374727,-0.08345098,13.37,-62.3,58.31,27,162.0,7.1610284
1784072433307,0.29256645,0.0783268,-0.17885838,-7.7,-53.27,50.47,27,162.0,7.1610284
1784072433307,0.5224227,-0.1202963,-0.0024400873,-39.97,-38.64,35.0,27,162.0,7.1610284
1784072433307,0.71055335,-0.224488,0.37382135,-37.59,-33.39,10.01,27,162.0,7.1610284
1784072433307,0.6541874,-0.37357733,0.52949893,22.75,-28.56,-16.17,27,162.0,7.1610284
1784072433307,0.5714684,-0.13786492,0.29305446,69.37,-24.22,-35.98,27,162.0,7.1610284
1784072433307,0.47459695,-0.33722004,0.037089325,125.020004,-14.63,-45.57,27,162.0,7.1610284
1784072433391,0.29012635,-0.8091329,-0.14616123,10.5,8.05,-47.04,27,162.0,7.1610284
1784072433391,0.25938126,-0.7469107,-0.02269281,-43.61,6.23,-40.88,27,162.0,7.1610284
1784072433391,0.5546318,-0.3557647,0.97969496,-90.02,-32.69,-31.85,27,162.0,7.1610284
1784072433391,1.1907625,-0.07222658,3.3770804,-43.19,-96.74,-17.78,27,162.0,7.1610284
1784072433391,1.2927581,0.034893245,2.0245402,188.79,-115.01,4.48,27,162.0,7.1610284
1784072433391,-1.5040697,0.2213159,-0.95114595,248.64,-69.44,1.12,27,162.0,7.1610284
1784072433391,-1.7192854,0.38187364,-0.29866666,108.29,-40.6,-5.11,27,162.0,7.1610284
1784072433391,-1.2832419,1.425499,-0.064906314,43.4,-23.17,32.83,27,162.0,7.1610284
1784072433530,-0.96749455,3.8755903,0.2554771,30.52,4.55,227.5,27,162.0,7.1610284
1784072433530,0.30476686,4.4953723,-0.83206975,136.15,48.09,231.77,27,162.0,7.1610284
1784072433530,2.29905,2.7973158,-1.7161133,30.52,-25.27,129.29,27,162.0,7.1610284
1784072433530,0.950902,1.5143181,0.38748583,-124.11,-52.71,70.91,27,162.0,7.1610284
1784072433530,0.09150327,1.4982134,0.1232244,-31.15,-18.9,46.9,27,162.0,7.1610284
1784072433530,0.025132896,1.9144924,-0.71006536,-33.18,-17.57,33.6,27,162.0,7.1610284
1784072433530,-0.043189544,1.9242527,-0.108095855,-88.55,-30.87,21.210001,27,162.0,7.1610284
1784072433530,-0.18544662,1.8952156,-0.17202614,-75.11,-34.86,10.64,27,162.0,7.1610284
1784072433664,-0.4060305,1.820793,-0.32599562,-56.91,-29.26,-4.48,27,162.0,7.1610284
1784072433664,-0.308427,1.8395817,-0.33429193,-56.63,-20.37,-15.4,27,162.0,7.1610284
1784072433664,-0.28183007,1.6975685,-0.19179085,-44.170002,-18.06,-21.49,27,162.0,7.1610284
1784072433664,-0.20716341,1.7141612,-0.28134203,-24.15,-0.28,-20.09,27,162.0,7.1610284
1784072433664,-0.21399564,1.6280261,-0.39383006,-21.91,7.84,-19.6,27,162.0,7.1610284
1784072433664,-0.14445315,1.4435556,-0.3782135,-32.41,5.95,-19.74,27,162.0,7.1610284
1784072433664,-0.110779956,1.3274074,-0.28695425,-31.710001,7.63,-20.93,27,162.0,7.1610284
1784072433664,-0.029769063,1.1348845,-0.22888018,-25.27,14.0,-25.9,28,168.0,7.1610284
1784072433755,0.19179085,0.99994767,-0.2859782,-9.94,24.43,-38.71,28,168.0,7.1610284
1784072433755,0.38187364,0.8306057,-0.280366,-25.06,19.39,-41.79,28,168.0,7.1610284
1784072433755,0.5575599,0.67102396,-0.19179085,-62.23,-1.4,-45.01,28,168.0,7.1610284
1784072433755,0.48630938,0.5565839,-0.10955991,-66.57,-15.96,-47.6,28,168.0,7.1610284
1784072433755,0.36869717,0.40505445,-0.12737255,-60.69,-21.98,-50.12,28,168.0,7.1610284
1784072433755,0.111999996,0.23254031,-0.024888888,-57.68,-15.61,-50.54,28,168.0,7.1610284
1784072433755,-0.100531586,0.21594772,0.032697167,-33.53,-4.27,-46.83,28,168.0,7.1610284
1784072433755,-0.23473638,-0.03050109,0.13322876,8.19,7.0,-33.39,28,168.0,7.1610284
1784072433933,-0.3250196,-0.19130284,0.3530806,109.9,38.15,18.27,28,168.0,7.1610284
1784072433933,-0.09443137,-0.5072941,0.29012635,110.32,44.52,44.1,28,168.0,7.1610284
1784072433933,0.0046361657,-0.5219347,0.13908496,76.93,41.37,60.83,28,168.0,7.1610284
1784072433933,0.12737255,-0.64296293,0.108339876,45.71,32.97,69.090004,28,168.0,7.1610284
1784072433933,0.22717212,-0.5665882,0.017324617,30.24,28.28,71.19,28,168.0,7.1610284
1784072433933,0.28256208,-0.51168627,0.16568191,8.05,26.880001,66.15,28,168.0,7.1610284
1784072433933,0.27572984,-0.32038346,0.86867106,-3.78,40.53,55.72,28,168.0,7.1610284
1784072433933,0.1093159,-0.18422659,1.8615423,31.5,85.68,37.45,28,168.0,7.1610284
1784072433979,0.6005055,-0.089551196,-0.1263965,189.21,141.75,7.0,29,174.0,7.1610284
1784072433979,1.8010283,-0.04148148,-0.59269714,67.2,122.15,-3.22,29,174.0,7.1610284
1784072433979,1.5618998,0.42433116,0.15640959,39.34,82.95,-31.57,29,174.0,7.1610284
1784072433979,0.9206449,1.8808192,-0.31672332,44.59,20.09,-102.41,29,174.0,7.1610284
1784072433979,0.6297865,2.2890456,-0.27231374,84.49,-7.07,-212.8,29,174.0,7.1610284
1784072433979,-0.7454466,3.5078695,-0.672976,110.11,-20.72,-277.62,29,174.0,7.1610284
1784072433979,-1.451608,4.865778,-0.27548584,121.66,36.47,-209.09,29,174.0,7.1610284
1784072433979,-2.8568542,2.4974294,-1.4513638,47.53,73.01,-90.65,29,174.0,7.1610284
1784072434114,-0.5282788,1.6890283,0.30745098,-68.04,49.49,0.21000001,29,174.0,7.1610284
1784072434114,-0.41554683,2.098963,-0.616366,2.94,68.46,-1.54,29,174.0,7.1610284
1784072434114,-0.1512854,1.9923313,-0.07735076,-7.84,61.81,-20.3,29,174.0,7.1610284
1784072434114,-0.03025708,2.295146,-0.447512,18.69,50.26,-38.22,29,174.0,7.1610284
1784072434114,-0.07808279,2.18461,-0.42067102,-5.11,26.11,-35.0,29,174.0,7.1610284
1784072434114,-0.19471896,2.1911983,-0.4538562,-20.23,0.77,-21.56,29,174.0,7.1610284
1784072434114,-0.25694117,1.9903791,-0.5109542,-50.26,-19.88,-4.06,29,174.0,7.1610284
1784072434114,-0.33526796,1.6177778,-0.32575163,-76.51,-33.11,5.95,29,174.0,7.1610284
1784072434206,-0.28085402,1.3888977,-0.43043137,-42.28,-42.7,10.36,29,174.0,7.1610284
1784072434206,-0.28622222,1.3069106,-0.38797387,-27.23,-34.93,12.6,29,174.0,7.1610284
1784072434206,-0.2627974,1.2105272,-0.35478866,-24.78,-30.73,14.35,29,174.0,7.1610284
1784072434206,-0.16006972,1.1243922,-0.23180829,-19.88,-30.66,17.5,30,180.0,7.1610284
1784072434206,-0.11029194,0.99335945,-0.1625098,-18.9,-31.22,22.82,30,180.0,7.1610284
1784072434206,-0.005124183,0.8842876,-0.195939,-18.48,-46.41,29.19,30,180.0,7.1610284
1784072434206,0.013176471,0.73934644,-0.2381525,-24.01,-57.4,36.54,30,180.0,7.1610284
1784072434206,4.8801742E-4,0.5502396,-0.13981698,-32.06,-60.27,43.75,30,180.0,7.1610284
1784072434432,-0.09662745,0.32038346,0.18398258,2.8,-62.510002,47.81,30,180.0,7.1610284
1784072434432,-0.067102395,0.26426142,0.033429194,20.16,-62.58,48.86,30,180.0,7.1610284
1784072434432,0.048557736,0.1202963,-0.10955991,-0.28,-53.62,47.04,30,180.0,7.1610284
1784072434432,0.31965142,-0.09467538,-0.0024400873,-29.75,-37.170002,38.5,30,180.0,7.1610284
1784072434432,0.6046536,-0.23717648,0.2435207,-33.53,-28.28,20.16,30,180.0,7.1610284
1784072434432,0.73202616,-0.41017866,0.5175425,13.93,-29.47,-2.8,30,180.0,7.1610284
1784072434432,0.5948933,-0.27377778,0.419939,44.170002,-29.89,-24.710001,30,180.0,7.1610284
1784072434432,0.4716688,-0.48338124,0.14908932,130.62,-19.67,-40.46,30,180.0,7.1610284
1784072434518,0.32648364,-1.0467974,-0.12737255,-9.31,-4.69,-52.01,30,180.0,7.1610284
1784072434518,0.06954248,-0.83036166,0.03172113,-60.2,-10.01,-53.55,30,180.0,7.1610284
1784072434518,0.26743355,-0.50778216,1.1724619,-73.29,-49.21,-49.420002,30,180.0,7.1610284
1784072434518,1.0424052,-0.042701527,3.022048,-2.31,-103.18,-32.55,30,180.0,7.1610284
1784072434518,1.2934902,0.021228759,1.9996514,154.28,-122.71,0.28,30,180.0,7.1610284
1784072434518,-1.7485664,-0.15592156,-0.8452462,285.6,-77.98,-2.52,30,180.0,7.1610284
1784072434518,-1.8268932,0.5275468,-0.727634,163.52,-61.32,-11.34,30,180.0,7.1610284
1784072434518,-1.2237037,1.1714859,0.25962526,53.34,-39.34,25.27,30,180.0,7.1610284
1784072434609,-1.0868148,3.8299608,0.25889325,1.89,-4.9,208.32,30,180.0,7.1610284
1784072434609,0.15299346,5.3140216,-0.44311982,95.340004,37.8,244.37,30,180.0,7.1610284
1784072434609,2.4574118,3.0157037,-1.8461698,74.06,-20.44,146.58,30,180.0,7.1610284
1784072434609,1.2090632,1.5052898,-0.2715817,-148.54,-55.09,80.29,30,180.0,7.1610284
1784072434609,0.43506756,1.0055599,0.9108845,-110.32,-24.01,49.84,30,180.0,7.1610284
1784072434609,0.38236165,1.567512,-0.51900655,2.1,-20.09,31.01,30,180.0,7.1610284
1784072434609,0.11248801,1.877159,-0.5104662,-50.89,-37.38,18.9,30,180.0,7.1610284
1784072434609,-0.15714161,1.9154685,-0.07979085,-72.52,-47.81,15.75,30,180.0,7.1610284
1784072434655,-0.56122005,1.8737429,-0.57098037,-47.81,-36.19,17.36,30,180.0,7.1610284
1784072434655,-0.34283224,1.7963921,-0.32916775,-70.35,-25.34,8.89,30,180.0,7.1610284
1784072434655,-0.20081916,1.7534467,-0.2100915,-63.0,-17.01,-3.01,30,180.0,7.1610284
1784072434655,-0.12761655,1.679024,-0.27865794,-43.82,-13.2300005,-10.92,30,180.0,7.1610284
1784072434655,0.07222658,1.6002091,-0.33233985,-41.09,-7.91,-13.3,30,180.0,7.1610284
1784072434655,-0.1261525,1.4572201,-0.31525928,-42.21,-1.12,-13.79,30,180.0,7.1610284
1784072434655,-0.17690632,1.313255,-0.32867974,-38.5,0.14,-14.14,30,180.0,7.1610284
1784072434655,-0.105167754,1.2324879,-0.2554771,-32.62,4.69,-16.38,30,180.0,7.1610284
1784072434702,0.0783268,1.0931591,-0.20960349,-15.82,20.65,-29.61,31,186.0,7.1610284
1784072434702,0.13371678,0.9182047,-0.28183007,-14.0,26.74,-33.88,31,186.0,7.1610284
1784072434702,0.30647492,0.7669194,-0.2125316,-34.72,18.13,-36.19,31,186.0,7.1610284
1784072434702,0.4704488,0.64174294,-0.16665795,-62.510002,-4.83,-41.79,31,186.0,7.1610284
1784072434702,0.38528976,0.5004619,-0.040993463,-57.61,-15.75,-46.2,31,186.0,7.1610284
1784072434702,0.26962963,0.42823526,-0.040993463,-49.56,-17.64,-49.49,31,186.0,7.1610284
1784072434702,0.095407404,0.26255336,0.05929412,-43.89,-8.89,-48.09,31,186.0,7.1610284
1784072434702,-0.026840959,0.21423966,0.09028322,-13.37,1.75,-41.86,31,186.0,7.1610284
1784072434880,-0.2466928,-0.036845315,0.34307626,84.42,32.13,-10.43,31,186.0,7.1610284
1784072434880,-0.23449236,-0.36210895,0.34795642,98.7,39.55,13.09,31,186.0,7.1610284
1784072434880,-0.16592592,-0.3835817,0.13762091,110.39,50.75,35.84,31,186.0,7.1610284
1784072434880,-0.018056644,-0.5797647,0.02830501,85.33,45.85,53.83,31,186.0,7.1610284
1784072434880,0.18251853,-0.616854,0.014152505,49.84,42.63,63.49,31,186.0,7.1610284
1784072434880,0.29891068,-0.6005055,0.07173856,14.42,43.12,63.56,31,186.0,7.1610284
1784072434880,0.3555207,-0.48069715,0.5458475,-11.69,53.62,56.77,31,186.0,7.1610284
1784072434880,0.26426142,-0.28451416,1.7227014,-3.64,85.47,41.23,31,186.0,7.1610284
1784072434970,-0.024400871,-0.22155991,0.5648802,186.69,173.95,4.76,32,192.0,7.1610284
1784072434970,1.9410893,0.16031373,-1.0641221,87.43,151.27,-6.7200003,32,192.0,7.1610284
1784072434970,1.7431982,-0.021960784,0.6361307,1.19,115.5,-21.49,32,192.0,7.1610284
1784072434970,0.9613943,1.3771852,-0.44922006,76.58,59.71,-74.48,32,192.0,7.1610284
1784072434970,0.7500828,1.9291328,-0.21741176,21.42,0.56,-163.31,32,192.0,7.1610284
1784072434970,-0.020008715,2.3324792,-0.6288104,122.85,22.47,-249.76,32,192.0,7.1610284
1784072434970,-0.68200433,5.1449237,-0.8235294,67.9,-11.13,-242.06,32,192.0,7.1610284
1784072434970,-2.9551897,4.1544924,-1.6177778,85.26,61.46,-135.31,32,192.0,7.1610284
1784072435197,-0.6849325,1.2951982,0.80083656,-147.91,67.62,-2.45,32,192.0,7.1610284
1784072435197,-0.4309194,2.0330806,-0.5224227,7.07,86.24,-0.35,32,192.0,7.1610284
1784072435197,-0.28256208,1.9496295,-0.3103791,-4.69,81.13,-9.24,32,192.0,7.1610284
1784072435197,-0.04782571,2.1150675,-0.2657255,4.06,71.75,-29.05,32,192.0,7.1610284
1784072435197,-0.048313726,2.2080348,-0.5024139,-9.38,51.45,-36.54,32,192.0,7.1610284
1784072435197,-0.12712854,2.130196,-0.40651852,-30.24,25.2,-28.28,32,192.0,7.1610284
1784072435197,-0.2584052,2.0338125,-0.46971676,-41.51,0.77,-12.67,32,192.0,7.1610284
1784072435197,-0.31550327,1.7734554,-0.4314074,-68.46,-13.58,1.26,32,192.0,7.1610284
1784072435329,-0.36430502,1.396462,-0.3860218,-60.69,-34.86,10.92,32,192.0,7.1610284
1784072435329,-0.34649238,1.2922702,-0.43555555,-40.670002,-27.86,13.2300005,32,192.0,7.1610284
1784072435329,-0.27768192,1.1939346,-0.37016124,-34.86,-23.66,16.17,32,192.0,7.1610284
1784072435329,-0.1905708,1.1502571,-0.34576035,-28.0,-21.84,18.97,32,192.0,7.1610284
1784072435329,-0.15201743,1.0277647,-0.1930109,-26.32,-21.91,23.8,33,198.0,7.1610284
1784072435329,-0.09150327,0.9155207,-0.26718953,-23.24,-31.85,30.17,33,198.0,7.1610284
1784072435329,-0.011224401,0.73031807,-0.18081045,-36.96,-44.38,37.8,33,198.0,7.1610284
1784072435329,-0.0053681917,0.69274074,-0.25913724,-44.94,-52.08,44.1,33,198.0,7.1610284
1784072435379,-0.12249237,0.44458386,0.07783878,-10.92,-60.34,51.1,33,198.0,7.1610284
1784072435379,-0.11248801,0.29037037,0.09906754,19.53,-63.420002,51.59,33,198.0,7.1610284
1784072435379,-0.029525053,0.18081045,-0.12346841,21.7,-59.010002,51.45,33,198.0,7.1610284
1784072435379,0.19764706,-0.11541612,-0.09955555,-11.69,-46.76,46.34,33,198.0,7.1610284
1784072435379,0.51022226,-0.29842266,0.15079738,-28.56,-36.05,31.08,33,198.0,7.1610284
1784072435379,0.72372985,-0.31281918,0.38772985,3.99,-32.9,6.7200003,33,198.0,7.1610284
1784072435379,0.7339782,-0.5421874,0.5387713,40.88,-31.22,-17.92,33,198.0,7.1610284
1784072435379,0.56024396,-0.5202266,0.23498039,128.73,-25.48,-37.59,33,198.0,7.1610284
1784072435464,0.3560087,-0.9135687,-0.22595207,-4.83,-2.59,-51.1,33,198.0,7.1610284
1784072435464,0.18544662,-0.868915,0.11639216,-60.48,-6.86,-49.35,33,198.0,7.1610284
1784072435464,0.47459695,-0.40139434,1.5140741,-82.6,-55.79,-44.38,33,198.0,7.1610284
1784072435464,1.1285403,-0.09101525,3.0713377,-0.98,-104.16,-25.13,33,198.0,7.1610284
1784072435464,0.8657429,0.036845315,1.652671,176.68001,-116.55,6.23,33,198.0,7.1610284
1784072435464,-2.2587886,-0.14372113,-1.2866579,287.21,-62.86,-10.36,33,198.0,7.1610284
1784072435464,-1.5292026,0.72983,-0.24718083,147.63,-49.49,-8.68,33,198.0,7.1610284
1784072435464,-1.1319563,1.7580827,-0.14372113,61.74,-18.41,38.71,33,198.0,7.1610284
1784072435515,-0.7051852,4.117403,-0.021472767,18.34,-2.1,225.26,33,198.0,7.1610284
1784072435515,0.62807846,4.6022487,-0.40798256,163.24,49.35,224.0,33,198.0,7.1610284
1784072435515,2.1321483,2.5608716,-1.9950153,3.15,-22.61,130.9,33,198.0,7.1610284
1784072435515,0.8733072,1.1888105,0.87574726,-184.73,-45.57,76.51,33,198.0,7.1610284
1784072435515,0.3438083,1.1985708,0.2779259,-45.71,-21.28,52.15,33,198.0,7.1610284
1784072435515,0.251817,1.8286012,-0.671512,-9.17,-27.02,36.4,33,198.0,7.1610284
1784072435515,0.010492375,1.8681307,-0.20496733,-75.46,-42.98,26.74,33,198.0,7.1610284
1784072435515,-0.23693246,1.8581263,-0.07759477,-68.04,-48.16,23.31,33,198.0,7.1610284
1784072435691,-0.4560523,1.8071285,-0.43433553,-59.36,-35.28,13.51,33,198.0,7.1610284
1784072435691,-0.3108671,1.8393376,-0.21521568,-67.76,-24.36,1.54,33,198.0,7.1610284
1784072435691,-0.2210719,1.7229456,-0.2632854,-59.15,-19.32,-8.12,33,198.0,7.1610284
1784072435691,-0.14128104,1.6736557,-0.22229193,-51.38,-15.05,-13.09,33,198.0,7.1610284
1784072435691,-0.21277559,1.6011852,-0.26230937,-39.62,2.8,-12.6,33,198.0,7.1610284
1784072435691,-0.095407404,1.4706405,-0.3501525,-39.69,3.78,-10.85,33,198.0,7.1610284
1784072435691,-0.06978649,1.3161831,-0.2627974,-41.16,3.57,-10.99,33,198.0,7.1610284
1784072435691,0.016348584,1.1658736,-0.21497166,-26.67,10.08,-13.79,34,204.0,7.1610284
1784072435779,0.14689325,0.9945795,-0.32941175,0.21000001,23.52,-25.97,34,204.0,7.1610284
1784072435779,0.23302832,0.84305006,-0.3108671,-14.84,22.26,-32.69,34,204.0,7.1610284
1784072435779,0.44189978,0.69859695,-0.20277125,-46.48,7.21,-40.11,34,204.0,7.1610284
1784072435779,0.56756425,0.3113551,-0.050509803,-70.63,-14.63,-46.97,34,204.0,7.1610284
1784072435779,0.33453596,0.36723313,-0.10419172,-64.33,-22.82,-52.99,34,204.0,7.1610284
1784072435779,0.10785185,0.32062745,-0.026352942,-57.33,-20.16,-55.79,34,204.0,7.1610284
1784072435779,-0.011224401,0.058318082,0.18739869,-33.46,-10.71,-52.85,34,204.0,7.1610284
1784072435779,-0.22888018,0.09296732,0.14689325,15.05,-0.42000002,-44.52,34,204.0,7.1610284
1784072435870,-0.2713377,-0.50461,0.5980654,106.61,28.49,7.7,34,204.0,7.1610284
1784072435870,-0.22009587,-0.49753374,0.29793465,140.28,43.33,37.45,34,204.0,7.1610284
1784072435870,-0.10614379,-0.44799998,0.048801742,126.35,46.34,56.98,34,204.0,7.1610284
1784072435870,0.1176122,-0.63271457,-0.0029281045,69.93,36.05,65.87,34,204.0,7.1610284
1784072435870,0.22888018,-0.6646797,0.04587364,32.9,33.39,68.18,34,204.0,7.1610284
1784072435870,0.3216035,-0.5382832,0.14274509,6.16,36.12,63.35,34,204.0,7.1610284
1784072435870,0.37601742,-0.40041828,1.0302048,-19.18,54.74,53.69,34,204.0,7.1610284
1784072435870,0.18910675,-0.29793465,2.1807058,25.41,105.0,35.35,34,204.0,7.1610284
1784072435960,1.4074422,0.11736819,-0.8513464,192.57,166.25,-3.57,34,204.0,7.1610284
1784072435960,2.153133,-0.17617428,-0.0729586,36.82,141.54,-21.0,34,204.0,7.1610284
1784072435960,1.6704837,0.69932896,0.0729586,68.04,92.05,-63.0,34,204.0,7.1610284
1784072435960,0.79912853,2.0953028,-0.7330022,58.31,26.25,-141.4,34,204.0,7.1610284
1784072435960,0.3052549,1.7802876,0.031477123,83.3,2.66,-238.7,34,204.0,7.1610284
1784072435960,-1.369865,3.6232853,-0.6109978,131.67,5.95,-284.27,34,204.0,7.1610284
1784072435960,-2.149473,5.516549,-0.756427,153.02,46.34,-200.41,34,204.0,7.1610284
1784072435960,-2.6933682,2.1094553,-1.6048453,-58.8,69.44,-81.55,34,204.0,7.1610284
1784072436186,-0.43775165,1.7629629,0.12371241,-67.06,69.93,4.69,34,204.0,7.1610284
1784072436186,-0.32916775,2.069926,-0.6134379,3.57,81.48,-0.63,34,204.0,7.1610284
1784072436186,-0.076374725,2.1116514,-0.23449236,-7.21,70.07,-22.960001,34,204.0,7.1610284
1784072436186,0.0021960784,2.1345882,-0.43775165,2.52,54.88,-41.79,34,204.0,7.1610284
1784072436186,-0.018300654,2.127756,-0.38236165,-10.01,30.03,-42.49,34,204.0,7.1610284
1784072436186,-0.21155554,2.1524007,-0.41603488,-16.24,3.85,-31.64,34,204.0,7.1610284
1784072436186,-0.3726013,2.0064838,-0.48386928,-44.170002,-19.25,-12.46,34,204.0,7.1610284
1784072436186,-0.5848889,1.680488,-0.35088453,-71.61,-35.14,0.28,34,204.0,7.1610284
1784072436319,-0.35161656,1.4147625,-0.43262747,-51.24,-39.41,8.89,34,204.0,7.1610284
1784072436319,-0.33380392,1.2737255,-0.391878,-37.73,-34.58,10.71,34,204.0,7.1610284
1784072436319,-0.19764706,1.1863704,-0.34283224,-32.9,-31.15,14.77,34,204.0,7.1610284
1784072436319,-0.14786929,1.0099521,-0.17763834,-25.55,-30.24,21.63,35,198.0,7.1610284
1784072436319,-0.050753813,0.95163393,-0.12151635,-18.27,-34.79,29.12,35,198.0,7.1610284
1784072436319,-0.07320262,0.89307183,-0.2881743,-26.04,-42.420002,37.24,35,198.0,7.1610284
1784072436319,0.001708061,0.7454466,-0.21497166,-46.97,-54.6,43.75,35,198.0,7.1610284
1784072436319,-0.043189544,0.56707627,-0.15372549,-46.76,-56.49,47.46,35,198.0,7.1610284
1784072436409,-0.09296732,0.34600437,0.098091505,12.18,-61.25,51.73,35,198.0,7.1610284
1784072436409,0.013420479,0.28646624,-0.11834422,31.15,-67.76,54.670002,35,198.0,7.1610284
1784072436409,0.23424837,0.09955555,-0.2381525,5.7400002,-59.71,54.32,35,198.0,7.1610284
1784072436409,0.41505885,-0.2603573,0.0,-18.41,-43.19,41.65,35,198.0,7.1610284
1784072436409,0.6817604,-0.7242179,0.58196074,2.8700001,-33.88,17.01,35,198.0,7.1610284
1784072436409,0.6824924,-0.24571678,0.47532898,54.88,-28.210001,-9.94,35,198.0,7.1610284
1784072436409,0.6200262,-0.66931593,0.37479737,135.31,-19.67,-28.14,35,198.0,7.1610284
1784072436409,0.59025705,-1.005804,0.05661002,85.47,-11.06,-39.48,35,198.0,7.1610284
1784072436457,0.15030937,-0.94284964,-0.13957298,-11.41,5.32,-39.27,35,198.0,7.1610284
1784072436457,0.12761655,-0.6976209,0.19837908,-53.06,-6.44,-36.47,35,198.0,7.1610284
1784072436457,0.6336906,-0.22033986,1.9359651,-92.75,-64.75,-27.93,35,198.0,7.1610284
1784072436457,1.3801134,-0.024156863,3.248976,24.710001,-105.840004,-4.2,35,198.0,7.1610284
1784072436457,0.025376907,0.25401306,0.8037647,226.8,-95.48,17.57,36,192.0,7.1610284
1784072436457,-2.46278,0.08637909,-1.3557124,235.76,-58.8,-6.16,36,192.0,7.1610284
1784072436457,-1.4211067,0.59025705,0.024400871,118.79,-34.44,1.4,36,192.0,7.1610284
1784072436457,-1.0738823,2.2880697,-0.34966448,91.840004,1.26,59.15,36,192.0,7.1610284
1784072436503,-0.48874947,6.196113,-0.18178649,41.3,16.03,233.31,36,192.0,7.1610284
1784072436503,1.8117648,4.306266,-1.1805141,198.59,33.11,165.76,36,192.0,7.1610284
1784072436503,1.7239215,1.8793551,-1.5516514,-126.42,-18.69,105.56,36,192.0,7.1610284
1784072436503,0.61148584,0.7586231,1.5479913,-225.89,-31.92,77.98,36,192.0,7.1610284
1784072436503,0.3728453,1.1924706,0.120540306,-10.22,-15.26,52.99,36,192.0,7.1610284
1784072436503,0.14762528,1.8347014,-0.79937255,7.56,-22.19,32.2,36,192.0,7.1610284
1784072436503,-0.1593377,1.9801308,-0.22619607,-69.65,-38.57,18.62,36,192.0,7.1610284
1784072436503,-0.51973855,1.96183,-0.22766013,-59.08,-41.02,13.02,36,192.0,7.1610284
1784072436548,-0.5848889,1.7410021,-0.30330282,-91.56,-28.98,4.13,36,192.0,7.1610284
1784072436548,-0.4309194,1.7622309,-0.18276253,-81.27,-18.2,-7.14,36,192.0,7.1610284
1784072436548,-0.3133072,1.6760958,-0.29793465,-53.69,-16.66,-15.190001,36,192.0,7.1610284
1784072436548,0.0070762527,1.596305,-0.3340479,-42.420002,-13.93,-17.22,36,192.0,7.1610284
1784072436548,-0.10004357,1.5260305,-0.33819607,-35.14,-6.7200003,-14.07,36,192.0,7.1610284
1784072436548,-0.005856209,1.3976818,-0.34844443,-34.65,-4.55,-10.15,36,192.0,7.1610284
1784072436548,0.10150763,1.2100393,-0.25913724,-29.12,2.24,-9.45,36,192.0,7.1610284
1784072436548,0.14494118,1.1082876,-0.18398258,-20.58,11.13,-16.45,37,198.0,7.1610284
1784072436638,0.2857342,0.84061,-0.32575163,-22.47,26.67,-37.38,37,198.0,7.1610284
1784072436638,0.35430065,0.7078693,-0.23132028,-46.83,16.52,-42.77,37,198.0,7.1610284
1784072436638,0.50436604,0.5731765,-0.10248367,-67.55,-6.23,-50.19,37,198.0,7.1610284
1784072436638,0.50021785,0.37357733,-0.048557736,-66.15,-19.18,-56.28,37,198.0,7.1610284
1784072436638,0.23888454,0.35430065,-0.11980827,-48.65,-19.53,-59.85,37,198.0,7.1610284
1784072436638,0.016836602,0.31452724,-0.050021786,-20.79,-8.82,-59.010002,37,198.0,7.1610284
1784072436638,-0.17080611,0.104435734,0.067590415,9.38,-2.73,-53.2,37,198.0,7.1610284
1784072436638,-0.3218475,-0.1512854,0.21619171,48.37,3.92,-35.63,37,198.0,7.1610284
1784072436684,-0.34356427,-0.5477996,0.38260567,144.2,38.08,29.47,37,198.0,7.1610284
1784072436684,-0.18813072,-0.699573,0.20081916,132.37,48.23,55.23,37,198.0,7.1610284
1784072436684,-0.013664488,-0.7051852,0.06856645,78.96,47.46,70.77,37,198.0,7.1610284
1784072436684,0.1512854,-0.68956864,0.11175599,35.56,42.56,74.83,37,198.0,7.1610284
1784072436684,0.30989107,-0.5719564,0.18056644,21.210001,39.62,69.93,37,198.0,7.1610284
1784072436684,0.39016995,-0.4111547,0.5060741,-0.21000001,42.56,59.010002,37,198.0,7.1610284
1784072436684,0.42091504,-0.223756,1.8027363,-5.11,74.340004,41.72,37,198.0,7.1610284
1784072436684,-0.29256645,-0.5016819,2.3744488,86.45,136.71,20.44,37,198.0,7.1610284
1784072436729,2.348096,0.052217867,-1.177342,121.45,139.86,-6.51,37,198.0,7.1610284
1784072436729,1.9232767,0.24864487,0.28012198,49.21,99.12,-32.48,37,198.0,7.1610284
1784072436729,0.9094205,1.9803746,-0.6597996,85.54,32.55,-103.46,37,198.0,7.1610284
1784072436729,0.47581697,2.3036864,-0.019276688,-14.9800005,-7.91,-203.7,37,198.0,7.1610284
1784072436729,-0.5931852,2.6675034,-0.24742483,146.93001,22.26,-278.25,37,198.0,7.1610284
1784072436729,-1.5594597,6.22271,-0.95602614,167.65,12.53,-239.26,37,198.0,7.1610284
1784072436729,-3.2031024,2.942989,-1.8830153,11.76,14.84,-124.46,37,198.0,7.1610284
1784072436729,-1.4069543,1.2324879,0.51022226,-234.57,15.190001,-28.7,37,198.0,7.1610284
1784072436864,-0.2881743,2.1079912,-0.53608716,-11.97,75.6,-9.52,37,198.0,7.1610284
1784072436864,0.033429194,2.1609411,-0.1905708,-12.46,71.12,-27.16,37,198.0,7.1610284
1784072436864,0.17885838,2.2314596,-0.38772985,1.47,58.94,-45.64,37,198.0,7.1610284
1784072436864,0.17739433,2.2302396,-0.41408283,-3.22,35.56,-44.59,37,198.0,7.1610284
1784072436864,-0.030745098,2.1653333,-0.39724618,-22.19,7.42,-30.94,37,198.0,7.1610284
1784072436864,-0.29232246,2.1150675,-0.4516601,-39.97,-15.96,-10.99,37,198.0,7.1610284
1784072436864,-0.34161222,1.9064401,-0.45483223,-67.2,-28.14,5.7400002,37,198.0,7.1610284
1784072436864,-0.45580825,1.5789804,-0.35430065,-77.35,-30.03,12.04,37,198.0,7.1610284
1784072436907,-0.31721133,1.2742134,-0.3979782,-41.93,-24.36,12.25,37,198.0,7.1610284
1784072436907,-0.23034422,1.1841743,-0.31477123,-26.81,-13.79,11.55,37,198.0,7.1610284
1784072436907,-0.085403055,1.1075556,-0.23449236,-13.02,-11.13,14.35,38,198.0,7.1610284
1784072436907,-0.07613072,1.0270326,-0.2132636,-10.85,-13.65,20.86,38,198.0,7.1610284
1784072436907,-0.06393028,0.9125926,-0.22546406,-24.08,-21.77,30.24,38,198.0,7.1610284
1784072436907,-0.06685839,0.7681394,-0.26670152,-53.2,-34.65,38.22,38,198.0,7.1610284
1784072436907,-0.10541177,0.58806103,-0.18837473,-66.08,-36.68,43.75,38,198.0,7.1610284
1784072436907,-0.10541177,0.4394597,-0.06319825,-51.52,-34.51,49.7,38,198.0,7.1610284
1784072436997,0.014640523,0.2464488,-0.0014640522,33.39,-61.18,57.19,38,198.0,7.1610284
1784072436997,0.20862745,0.086623095,-0.19789107,25.55,-62.23,58.59,38,198.0,7.1610284
1784072436997,0.35186055,-0.26767758,-0.14030501,-1.19,-46.48,48.44,38,198.0,7.1610284
1784072436997,0.5524357,-0.50338995,0.20106317,4.13,-36.4,24.15,38,198.0,7.1610284
1784072436997,0.6131939,-0.23961654,0.5648802,73.22,-31.99,-2.17,38,198.0,7.1610284
1784072436997,0.54901963,-0.56512415,0.27963397,86.87,-29.4,-26.95,38,198.0,7.1610284
1784072436997,0.52144665,-0.80498475,0.25889325,46.62,-21.42,-44.94,38,198.0,7.1610284
1784072436997,0.43921572,-0.61246186,0.023912854,55.86,-10.64,-49.84,38,198.0,7.1610284
1784072437043,0.1176122,-0.7086013,-0.19008279,-7.21,-7.07,-44.73,38,198.0,7.1610284
1784072437043,0.050265793,-0.699573,-0.101019606,-52.08,-9.66,-42.77,38,198.0,7.1610284
1784072437043,0.20081916,-0.39114597,1.0324008,-85.96,-46.55,-40.670002,38,198.0,7.1610284
1784072437043,1.1341525,0.20521133,3.5208018,-15.05,-105.91,-21.91,38,198.0,7.1610284
1784072437043,1.372061,0.0026840959,2.326379,184.1,-117.46,10.08,38,198.0,7.1610284
1784072437043,-2.2182832,0.22082789,-1.4972374,326.83,-57.47,2.45,38,198.0,7.1610284
1784072437043,-1.9491416,0.86476684,-0.39309806,100.24,-52.08,4.48,38,198.0,7.1610284
1784072437043,-1.5543355,2.241708,0.35381263,89.46,-32.13,63.420002,38,198.0,7.1610284
1784072437089,-0.24474074,4.387521,-1.038257,40.32,-2.73,257.39,38,198.0,7.1610284
1784072437089,1.7212375,4.360924,-0.4275033,152.88,27.93,197.47,38,198.0,7.1610284
1784072437089,2.0931067,2.3083224,-1.8071285,-58.87,-19.460001,101.71,38,198.0,7.1610284
1784072437089,0.7027451,1.1583093,0.65394336,-215.88,-48.65,66.36,38,198.0,7.1610284
1784072437089,0.38211766,1.0414292,0.53096294,-79.590004,-31.57,47.88,38,198.0,7.1610284
1784072437089,0.21350762,1.6717038,-0.6637037,-11.62,-31.64,31.22,38,198.0,7.1610284
1784072437089,-0.08271895,1.8547102,-0.35698473,-69.3,-44.73,20.37,38,198.0,7.1610284
1784072437089,-0.33160785,1.8705709,-0.1093159,-64.19,-51.59,17.64,38,198.0,7.1610284
1784072437178,-0.44360784,1.8608105,-0.5182745,-61.18,-38.5,10.01,38,198.0,7.1610284
1784072437178,-0.33624402,1.8778911,-0.364549,-64.19,-24.92,-3.85,38,198.0,7.1610284
1784072437178,-0.21716776,1.7741873,-0.40773857,-56.28,-14.7,-15.26,38,198.0,7.1610284
1784072437178,-0.16861002,1.6580393,-0.336488,-42.63,1.75,-19.39,38,198.0,7.1610284
1784072437178,-0.040993463,1.5311546,-0.41920698,-31.92,8.4,-19.25,38,198.0,7.1610284
1784072437178,0.010248366,1.4069543,-0.41749892,-31.15,10.71,-18.55,38,198.0,7.1610284
1784072437178,0.12517647,1.2795818,-0.3213595,-33.95,16.17,-19.460001,38,198.0,7.1610284
1784072437178,0.084915034,1.1936907,-0.24156862,-27.37,24.78,-21.98,38,198.0,7.1610284
1784072437224,0.14957735,0.93650544,-0.15226144,-16.8,35.21,-31.01,39,204.0,7.1610284
1784072437224,0.16202179,0.83597386,-0.06929847,-23.87,29.61,-37.31,39,204.0,7.1610284
1784072437224,0.32453158,0.69591284,-0.016104575,-48.79,10.71,-42.91,39,204.0,7.1610284
1784072437224,0.36503705,0.5216906,0.008540305,-63.7,-1.19,-45.22,39,204.0,7.1610284
1784072437224,0.25010893,0.34795642,-0.03660131,-60.760002,-3.64,-47.74,39,204.0,7.1610284
1784072437224,0.039285403,0.26694554,0.028061,-49.14,4.2,-49.56,39,204.0,7.1610284
1784072437224,-0.07710675,0.1627538,0.08808714,-24.710001,19.25,-47.88,39,204.0,7.1610284
1784072437224,-0.14323312,0.031233115,0.09833551,10.99,25.27,-39.55,39,204.0,7.1610284
1784072437309,-0.33551198,-0.2579172,0.5151024,106.26,43.96,3.57,39,204.0,7.1610284
1784072437309,-0.29866666,-0.4928976,0.4262832,134.33,52.85,27.51,39,204.0,7.1610284
1784072437309,-0.15030937,-0.69859695,0.23766449,122.85,53.41,46.55,39,204.0,7.1610284
1784072437309,0.0046361657,-0.7378824,0.016348584,85.47,53.27,58.52,39,204.0,7.1610284
1784072437309,0.34283224,-0.72958606,0.17422222,35.56,49.56,60.34,39,204.0,7.1610284
1784072437309,0.4516601,-0.48435733,0.29817864,28.42,56.49,53.97,39,204.0,7.1610284
1784072437309,0.40115032,-0.17788234,1.3288715,16.03,76.86,40.39,39,204.0,7.1610284
1784072437309,-0.050021786,-0.24205664,2.4051938,49.0,130.83,19.6,39,204.0,7.1610284
1784072437443,2.154353,0.23546842,-1.3049586,163.1,134.96,20.16,39,204.0,7.1610284
1784072437443,1.8720348,0.21033551,0.45312417,23.8,95.41,13.16,39,204.0,7.1610284
1784072437443,1.2712854,1.791024,-0.30940303,79.66,40.6,-49.56,39,204.0,7.1610284
1784072437443,0.9645664,2.6831198,-0.31403923,7.0,-13.2300005,-162.82,39,204.0,7.1610284
1784072437443,-0.31721133,2.8490458,-0.58562094,148.33,11.97,-267.12,39,204.0,7.1610284
1784072437443,-0.96920264,4.9011593,-1.1839303,32.48,14.7,-253.75,39,204.0,7.1610284
1784072437443,-2.805612,4.1630325,-0.90917647,81.340004,58.1,-127.89,39,204.0,7.1610284
1784072437443,-1.5694641,1.6446187,-0.4785011,-152.32,50.96,-25.9,39,204.0,7.1610284
1784072437536,-0.6385708,1.8976557,-0.4384837,-20.3,82.39,9.38,39,204.0,7.1610284
1784072437536,-0.42677125,1.9435294,-0.25328103,-7.28,73.85,0.63,39,204.0,7.1610284
1784072437536,-0.095407404,2.101159,-0.2601133,6.37,56.63,-20.86,39,204.0,7.1610284
1784072437536,-0.09345534,2.2461002,-0.5482876,-1.47,31.99,-30.52,39,204.0,7.1610284
1784072437536,-0.16372985,2.073586,-0.41408283,-30.24,1.75,-25.48,39,204.0,7.1610284
1784072437536,-0.32575163,1.958414,-0.5087582,-47.18,-24.710001,-14.35,39,204.0,7.1610284
1784072437536,-0.448976,1.678048,-0.42799127,-62.02,-52.22,-3.85,39,204.0,7.1610284
1784072437536,-0.4009063,1.4511198,-0.364549,-64.82,-60.2,3.57,39,204.0,7.1610284
1784072437624,-0.2908584,1.2556688,-0.47752503,-36.33,-57.12,10.71,39,204.0,7.1610284
1784072437624,-0.21033551,1.1714859,-0.4897255,-20.3,-50.47,12.53,39,204.0,7.1610284
1784072437624,-0.15445751,1.0482614,-0.23742047,-11.97,-47.88,16.31,40,204.0,7.1610284
1784072437624,-0.011956427,0.9918954,-0.2462048,2.1,-46.55,22.33,40,204.0,7.1610284
1784072437624,0.0148845315,0.8620828,-0.21277559,-2.66,-53.2,30.59,40,204.0,7.1610284
1784072437624,0.037089325,0.79132026,-0.23620042,-26.460001,-62.23,39.48,40,204.0,7.1610284
1784072437624,-0.07076252,0.6185621,-0.20008714,-50.75,-59.78,46.2,40,204.0,7.1610284
1784072437624,-0.12737255,0.42189106,0.027572986,-46.97,-55.44,49.14,40,204.0,7.1610284
1784072437714,0.034649234,0.27890193,-0.00951634,-0.84000003,-60.760002,49.7,40,204.0,7.1610284
1784072437714,0.24596079,0.038553376,-0.074666664,-18.9,-51.03,48.44,40,204.0,7.1610284
1784072437714,0.52388674,-0.14933333,-0.01146841,-36.19,-36.26,38.22,40,204.0,7.1610284
1784072437714,0.76277125,-0.3389281,0.41310674,-19.74,-25.76,15.82,40,204.0,7.1610284
1784072437714,0.7713115,-0.32941175,0.89380395,74.83,-18.69,-7.84,40,204.0,7.1610284
1784072437714,0.7383704,-0.5263268,0.36772114,141.54,-23.73,-30.87,41,210.0,7.1610284
1784072437714,0.62563837,-0.7786318,0.11566014,110.81,-14.42,-45.01,41,210.0,7.1610284
1784072437714,0.47752503,-0.869403,-0.16958606,47.670002,-7.98,-47.53,41,210.0,7.1610284
1784072437809,0.068810456,-0.77594775,-0.08467103,-10.57,-6.58,-44.52,41,210.0,7.1610284
1784072437809,0.14738126,-0.51144224,0.48167318,-50.33,-33.74,-43.82,41,210.0,7.1610284
1784072437809,0.73275816,-0.004392157,2.829037,-56.07,-90.86,-31.92,41,210.0,7.1610284
1784072437809,1.372305,0.051973857,2.7609584,121.31,-114.73,-3.64,41,210.0,7.1610284
1784072437809,-0.77179956,0.030013073,-0.32477558,292.6,-75.39,6.44,42,210.0,7.1610284
1784072437809,-2.126048,0.57903266,-1.5060217,199.15,-41.37,-8.75,42,210.0,7.1610284
1784072437809,-1.3554684,1.3220392,0.38162962,42.35,-29.05,19.6,42,210.0,7.1610284
1784072437809,-1.7126971,1.1956427,-1.5048018,24.85,32.48,84.63,42,210.0,7.1610284
1784072437895,-0.01146841,5.6758866,-0.6749281,111.79,48.51,247.66,42,210.0,7.1610284
1784072437895,2.6230938,3.1784575,-2.1175075,42.0,-33.53,148.47,42,210.0,7.1610284
1784072437895,1.2280959,1.4303792,0.3211155,-149.1,-53.83,86.31,42,210.0,7.1610284
1784072437895,0.31452724,1.2764096,0.37406534,-83.3,-19.18,58.03,42,210.0,7.1610284
1784072437895,0.2991547,1.6897603,-0.49753374,-21.0,-21.91,41.02,42,210.0,7.1610284
1784072437895,0.047093682,1.8778911,-0.27694988,-72.8,-35.84,26.6,42,210.0,7.1610284
1784072437895,-0.16397385,1.8961917,-0.16934206,-86.52,-47.18,17.43,42,210.0,7.1610284
1784072437895,-0.43165144,1.7854118,-0.33258387,-63.420002,-51.1,12.39,42,210.0,7.1610284
1784072438031,-0.4121307,1.8925315,-0.3308758,-65.52,-32.9,-7.7,42,210.0,7.1610284
1784072438031,-0.34234422,1.7436863,-0.30135074,-59.08,-25.48,-19.39,42,210.0,7.1610284
1784072438031,-0.27621785,1.6302222,-0.2691416,-46.34,-20.37,-24.22,42,210.0,7.1610284
1784072438031,-0.26670152,1.595329,-0.28475818,-30.73,1.61,-21.49,42,210.0,7.1610284
1784072438031,-0.18691067,1.4618562,-0.36723313,-25.13,4.97,-18.34,42,210.0,7.1610284
1784072438031,-0.09565142,1.3215512,-0.34966448,-21.63,4.69,-17.08,42,210.0,7.1610284
1784072438031,0.04660566,1.2422483,-0.3584488,-21.35,11.83,-20.3,42,210.0,7.1610284
1784072438031,0.09028322,1.0760784,-0.12810457,-14.0,20.16,-29.19,43,216.0,7.1610284
1784072438078,0.3306318,0.85061437,-0.23766449,-18.2,20.3,-40.670002,43,216.0,7.1610284
1784072438078,0.55926794,0.71323746,-0.16104576,-57.96,5.32,-45.15,43,216.0,7.1610284
1784072438078,0.6500392,0.4511721,-0.111999996,-80.71,-15.54,-51.38,43,216.0,7.1610284
1784072438078,0.46874073,0.33770806,-0.07759477,-67.13,-17.57,-57.47,43,216.0,7.1610284
1784072438078,0.19423094,0.27890193,7.320261E-4,-53.34,-5.95,-59.5,43,216.0,7.1610284
1784072438078,0.0039041394,0.1903268,0.094187364,-31.29,6.23,-56.49,43,216.0,7.1610284
1784072438078,-0.15372549,0.13444881,0.12298039,16.87,14.21,-46.48,43,216.0,7.1610284
1784072438078,-0.29891068,-0.1593377,0.3474684,64.12,20.65,-23.73,43,216.0,7.1610284
1784072438123,-0.20594336,-0.4931416,0.37357733,130.83,52.43,43.19,43,216.0,7.1610284
1784072438123,-0.05783007,-0.77253157,0.1568976,110.39,53.41,67.340004,43,216.0,7.1610284
1784072438123,0.124200426,-0.78814816,0.090039216,69.65,45.99,80.22,43,216.0,7.1610284
1784072438123,0.22790413,-0.701281,-0.05343791,38.99,35.07,80.85,43,216.0,7.1610284
1784072438123,0.25132897,-0.53657514,-0.063686274,6.79,25.27,72.38,43,216.0,7.1610284
1784072438123,0.2322963,-0.42140305,0.25108495,-14.14,26.6,59.78,43,216.0,7.1610284
1784072438123,0.14445315,-0.19496296,1.3244792,-23.87,53.41,44.59,43,216.0,7.1610284
1784072438123,-0.3977342,-0.33209586,2.520366,39.69,123.55,22.47,43,216.0,7.1610284
1784072438169,2.0247843,0.17227016,-1.3193551,189.07,149.94,-13.440001,43,216.0,7.1610284
1784072438169,2.319059,0.27182573,0.14786929,39.62,110.53,-35.35,43,216.0,7.1610284
1784072438169,1.5226144,1.8983878,-0.11297604,87.29,38.22,-108.85,43,216.0,7.1610284
1784072438169,0.79839647,2.3332114,-1.0165403,120.61,-6.7200003,-247.73,43,216.0,7.1610284
1784072438169,-1.0394771,3.3797646,-0.9330893,92.54,-33.39,-324.31,43,216.0,7.1610284
1784072438169,-2.1148236,6.6704664,0.23790848,142.24,27.51,-219.52,43,216.0,7.1610284
1784072438169,-3.1047668,2.1145797,-1.9205925,47.74,69.58,-84.56,43,216.0,7.1610284
1784072438169,-0.950414,1.0753464,0.37992156,-265.72,8.47,-5.25,43,216.0,7.1610284
1784072438256,-0.3721133,1.9923313,-0.82279736,7.4900002,71.26,10.92,43,216.0,7.1610284
1784072438256,-0.056122,2.0262482,-0.23961654,-17.22,63.28,-13.09,43,216.0,7.1610284
1784072438256,0.09321132,2.1463006,-0.37748146,8.47,55.3,-42.84,43,216.0,7.1610284
1784072438256,0.011224401,2.1377604,-0.44336385,-1.61,34.65,-50.54,43,216.0,7.1610284
1784072438256,-0.09272331,2.100427,-0.37162527,-10.01,6.44,-42.49,43,216.0,7.1610284
1784072438256,-0.28671023,2.105551,-0.5241307,-16.87,-17.92,-23.31,43,216.0,7.1610284
1784072438256,-0.2913464,1.7961482,-0.46532464,-51.94,-30.59,-2.31,43,216.0,7.1610284
1784072438256,-0.25132897,1.5728801,-0.5070501,-55.23,-50.12,6.09,43,216.0,7.1610284
1784072438302,-0.308427,1.3798693,-0.50461,-30.17,-31.99,14.42,43,216.0,7.1610284
1784072438302,-0.24791284,1.2764096,-0.44677997,-26.460001,-30.8,15.96,43,216.0,7.1610284
1784072438302,-0.14518519,1.1185359,-0.2713377,-29.26,-31.36,21.77,44,210.0,7.1610284
1784072438302,-0.12395642,1.0526536,-0.13859694,-15.47,-31.57,30.24,44,210.0,7.1610284
1784072438302,-0.118832245,0.90649235,-0.2074074,-22.33,-34.51,37.73,44,210.0,7.1610284
1784072438302,-0.05563399,0.7251939,-0.14616123,-49.07,-38.99,42.35,44,210.0,7.1610284
1784072438302,-0.07222658,0.62954247,-0.15543355,-59.78,-40.74,47.04,44,210.0,7.1610284
1784072438302,-0.040749453,0.5575599,-0.070518516,-62.93,-41.86,50.12,44,210.0,7.1610284
1784072438345,0.09052724,0.36772114,0.13005665,9.66,-60.55,53.760002,44,210.0,7.1610284
1784072438345,0.08589107,0.116636164,-0.0363573,17.85,-57.47,52.5,44,210.0,7.1610284
1784072438345,0.33160785,-0.029769063,-0.025132896,-5.39,-39.83,45.57,44,210.0,7.1610284
1784072438345,0.57903266,-0.30769497,0.2579172,-7.4900002,-28.14,23.73,44,210.0,7.1610284
1784072438345,0.72616994,-0.25816122,0.5136384,44.03,-24.78,-3.92,44,210.0,7.1610284
1784072438345,0.6624837,-0.53511107,0.642231,120.61,-19.32,-23.45,44,210.0,7.1610284
1784072438345,0.5736645,-0.83426577,0.13176471,81.13,-20.51,-37.66,44,210.0,7.1610284
1784072438345,0.48460132,-0.9879913,0.013176471,29.12,-4.76,-40.95,44,210.0,7.1610284
1784072438528,-0.025620917,-0.867695,-0.13176471,-17.08,1.19,-38.78,44,210.0,7.1610284
1784072438528,-0.08271895,-0.6273464,0.12566449,-32.06,-12.18,-40.39,44,210.0,7.1610284
1784072438528,0.49167755,-0.023912854,1.9059521,-37.45,-67.27,-31.78,44,210.0,7.1610284
1784072438528,1.4159826,0.074666664,3.4663877,57.12,-113.68,-4.76,44,210.0,7.1610284
1784072438528,0.52388674,0.23327233,0.99262744,239.4,-106.54,24.5,45,216.0,7.1610284
1784072438528,-2.8143966,-0.08589107,-1.7273376,249.48,-56.98,1.12,45,216.0,7.1610284
1784072438528,-1.8254293,0.84402615,0.22814815,89.25,-49.98,11.55,45,216.0,7.1610284
1784072438528,-1.794196,2.4901087,-0.7137255,109.62,3.3600001,74.83,45,216.0,7.1610284
1784072438662,-0.19105883,5.968697,-0.65223527,35.07,27.3,269.78,45,216.0,7.1610284
1784072438662,2.3563921,4.1342397,-1.065342,147.35,0.42000002,168.35,45,216.0,7.1610284
1784072438662,1.7949281,1.9406013,-1.1287843,-130.06,-26.39,88.13,45,216.0,7.1610284
1784072438662,0.68908066,0.9160087,1.1282963,-182.7,-31.92,60.27,45,216.0,7.1610284
1784072438662,0.5290109,1.3342396,-0.13932897,-16.24,-20.37,38.22,45,216.0,7.1610284
1784072438662,0.16299781,1.7785796,-0.79668844,-33.88,-29.54,22.68,45,216.0,7.1610284
1784072438662,-0.10980393,1.8649585,-0.20935948,-95.06,-43.26,16.03,45,216.0,7.1610284
1784072438662,-0.39627016,1.8469019,-0.21838781,-60.83,-43.26,15.54,45,216.0,7.1610284
1784072438708,-0.3408802,1.8752068,-0.41310674,-56.77,-20.72,9.1,45,216.0,7.1610284
1784072438708,-0.24034858,1.8251852,-0.3135512,-58.31,-9.87,-4.34,45,216.0,7.1610284
1784072438708,-0.13859694,1.710257,-0.24278867,-48.44,-5.18,-14.84,45,216.0,7.1610284
1784072438708,-0.057098042,1.6782919,-0.31769934,-36.61,8.33,-16.45,45,216.0,7.1610284
1784072438708,-0.058074076,1.456244,-0.39578214,-41.93,9.87,-14.7,45,216.0,7.1610284
1784072438708,-0.0951634,1.2771416,-0.34454033,-50.47,3.78,-12.53,45,216.0,7.1610284
1784072438708,-0.074666664,1.1868584,-0.19008279,-43.89,7.7,-12.18,45,216.0,7.1610284
1784072438708,-0.007808279,1.1358606,-0.14347713,-26.39,16.45,-19.81,46,222.0,7.1610284
1784072438754,0.10980393,0.92869717,-0.26352942,-17.22,24.710001,-38.99,46,222.0,7.1610284
1784072438754,0.30623093,0.8274335,-0.21911982,-47.18,11.2,-45.85,46,222.0,7.1610284
1784072438754,0.43921572,0.616122,-0.14250109,-73.29,-8.05,-51.24,46,222.0,7.1610284
1784072438754,0.33380392,0.5380392,-0.14762528,-71.68,-17.01,-52.99,46,222.0,7.1610284
1784072438754,0.13932897,0.36601308,-0.048801742,-55.79,-14.63,-53.34,46,222.0,7.1610284
1784072438754,0.010492375,0.25596514,-0.0024400873,-44.94,-8.75,-49.49,46,222.0,7.1610284
1784072438754,-0.11980827,0.09955555,0.16836601,-4.34,-0.21000001,-38.920002,46,222.0,7.1610284
1784072438754,-0.31062308,-0.02269281,0.33429193,41.37,8.19,-22.68,46,222.0,7.1610284
1784072438845,-0.25035295,-0.48801744,0.34600437,150.5,39.48,29.68,46,222.0,7.1610284
1784072438845,-0.028793028,-0.83353376,0.16909803,123.270004,39.34,52.08,46,222.0,7.1610284
1784072438845,0.08467103,-0.80254465,-0.04148148,88.83,43.4,65.24,46,222.0,7.1610284
1784072438845,0.28451416,-0.76203924,-0.038309366,41.09,36.96,67.62,46,222.0,7.1610284
1784072438845,0.34551635,-0.63271457,-0.04733769,19.95,36.05,61.18,46,222.0,7.1610284
1784072438845,0.32038346,-0.48386928,0.2857342,-6.09,41.44,49.84,46,222.0,7.1610284
1784072438845,0.2908584,-0.24522875,1.4633203,-14.7,66.01,34.16,46,222.0,7.1610284
1784072438845,-0.07076252,-0.26840958,2.3073463,43.19,127.75,11.4800005,46,222.0,7.1610284
1784072438974,2.3746927,0.34039217,-1.0677822,160.16,154.42,-13.72,46,222.0,7.1610284
1784072438974,2.2168193,0.12005229,0.13810892,53.760002,115.01,-25.83,46,222.0,7.1610284
1784072438974,1.4242789,1.5858127,-0.5155904,90.16,41.72,-90.65,46,222.0,7.1610284
1784072438974,0.77155554,2.438867,-0.5160785,27.16,15.12,-215.88,46,222.0,7.1610284
1784072438974,-0.8803835,3.1728454,-0.5719564,157.78,6.58,-301.42,46,222.0,7.1610284
1784072438974,-1.8878953,6.3081136,-0.6288104,165.83,19.39,-232.4,46,222.0,7.1610284
1784072438974,-3.2099347,2.4230065,-2.5237823,49.07,54.25,-105.98,46,222.0,7.1610284
1784072438974,-1.1048714,0.95163393,0.3162353,-294.0,-8.19,-16.52,46,222.0,7.1610284
1784072439063,-0.29866666,2.0077038,-0.84622216,35.84,78.75,5.67,46,222.0,7.1610284
1784072439063,0.03050109,2.046745,-0.29891068,-6.86,65.94,-10.15,46,222.0,7.1610284
1784072439063,0.12395642,2.1711895,-0.3281917,16.59,57.61,-36.33,46,222.0,7.1610284
1784072439063,0.11248801,2.2285316,-0.52461874,-2.03,36.75,-43.05,46,222.0,7.1610284
1784072439063,-0.032941177,2.041133,-0.31965142,-25.34,5.6,-33.670002,46,222.0,7.1610284
1784072439063,-0.30403486,2.1426404,-0.40407842,-24.5,-19.95,-15.4,46,222.0,7.1610284
1784072439063,-0.39944226,1.8510501,-0.4897255,-48.58,-34.02,4.2,46,222.0,7.1610284
1784072439063,-0.46410456,1.624854,-0.43653157,-63.0,-38.99,14.42,46,222.0,7.1610284
1784072439201,-0.29573858,1.3225272,-0.48533335,-31.36,-32.97,17.01,46,222.0,7.1610284
1784072439201,-0.21228758,1.2466406,-0.40676254,-21.49,-26.74,17.92,46,222.0,7.1610284
1784072439201,-0.07759477,1.1888105,-0.31525928,-18.83,-29.4,22.12,46,222.0,7.1610284
1784072439201,-0.110779956,1.066562,-0.19813508,-15.68,-35.63,29.82,47,216.0,7.1610284
1784072439201,-0.0922353,0.92723316,-0.29769063,-34.79,-40.04,38.43,47,216.0,7.1610284
1784072439201,-0.07173856,0.8218214,-0.3108671,-55.23,-49.0,43.12,47,216.0,7.1610284
1784072439201,-0.13566884,0.5485316,-0.24181265,-58.24,-51.03,46.13,47,216.0,7.1610284
1784072439201,-0.029037038,0.48338124,-0.112244,-50.89,-51.87,48.51,47,216.0,7.1610284
1784072439246,0.1285926,0.39968628,-0.030013073,10.64,-61.53,50.68,47,216.0,7.1610284
1784072439246,0.251573,0.24205664,-0.07930283,6.79,-60.13,52.5,47,216.0,7.1610284
1784072439246,0.33722004,-0.027328975,-0.014152505,-16.45,-47.25,48.93,47,216.0,7.1610284
1784072439246,0.5582919,-0.38138562,0.33185184,19.67,-41.86,34.23,47,216.0,7.1610284
1784072439246,0.65443134,-0.18691067,0.53657514,54.95,-32.69,12.11,47,216.0,7.1610284
1784072439246,0.6036775,-0.4931416,0.48020917,100.73,-25.97,-7.77,47,216.0,7.1610284
1784072439246,0.5480436,-0.6027015,0.23302832,75.25,-20.44,-21.91,47,216.0,7.1610284
1784072439246,0.4928976,-0.72714597,0.009760349,45.15,-11.34,-29.68,47,216.0,7.1610284
1784072439425,0.10785185,-1.0206885,-0.0588061,-4.83,-3.01,-28.42,47,216.0,7.1610284
1784072439425,0.029525053,-0.87623525,0.31013507,-50.96,-17.22,-30.52,47,216.0,7.1610284
1784072439425,0.5241307,-0.17397821,2.1680174,-59.5,-68.74,-24.5,47,216.0,7.1610284
1784072439425,1.0848627,-0.008784314,3.078902,83.3,-103.32,2.45,47,216.0,7.1610284
1784072439425,-0.44799998,0.30989107,0.16738997,270.76,-85.82,24.710001,48,222.0,7.1610284
1784072439425,-2.1394684,-0.17031808,-1.4635643,197.4,-71.05,7.28,48,222.0,7.1610284
1784072439425,-1.3388758,0.42140305,0.25084096,118.72,-34.65,11.2,48,222.0,7.1610284
1784072439425,-1.009464,2.1716776,-0.5829368,73.22,5.11,59.29,48,222.0,7.1610284
1784072439516,-0.5463355,5.8108234,-0.42091504,12.11,13.16,237.16,48,222.0,7.1610284
1784072439516,2.0796864,4.9746056,-1.2517647,275.8,44.38,163.8,48,222.0,7.1610284
1784072439516,1.6194859,1.8998518,-2.100427,-94.92,8.05,102.13,48,222.0,7.1610284
1784072439516,0.8245054,1.1383007,1.092427,-267.96,-23.59,78.68,48,222.0,7.1610284
1784072439516,0.56756425,0.9582222,0.6063617,-45.36,-12.6,55.58,48,222.0,7.1610284
1784072439516,0.14860131,1.9515817,-1.0311809,22.68,-8.75,33.46,48,222.0,7.1610284
1784072439516,-0.14103703,1.9440174,-0.51071024,-70.91,-22.75,24.01,48,222.0,7.1610284
1784072439516,-0.447756,1.9445055,-0.21667975,-68.39,-23.45,20.16,48,222.0,7.1610284
1784072439605,-0.40285838,1.9481657,-0.4955817,-69.93,-0.91,0.7,48,222.0,7.1610284
1784072439605,-0.33917212,1.8137168,-0.2937865,-71.33,6.7200003,-17.01,48,222.0,7.1610284
1784072439605,-0.252305,1.6895163,-0.28012198,-52.29,5.46,-29.33,48,222.0,7.1610284
1784072439605,-0.22351198,1.6046013,-0.30379084,-42.07,0.63,-32.9,48,222.0,7.1610284
1784072439605,-0.12346841,1.5421351,-0.30647492,-46.55,5.53,-27.23,48,222.0,7.1610284
1784072439605,-0.29720262,1.371817,-0.25645316,-37.31,3.71,-21.07,48,222.0,7.1610284
1784072439605,-0.18178649,1.2998345,-0.23595643,-28.7,6.09,-18.2,48,222.0,7.1610284
1784072439605,-0.05685403,1.2090632,-0.1202963,-25.34,15.12,-22.05,48,222.0,7.1610284
1784072439696,0.09321132,0.98115903,-0.32282352,-27.65,25.55,-30.66,49,222.0,7.1610284
1784072439696,0.26133332,0.75471896,-0.17715032,-52.57,18.83,-34.02,49,222.0,7.1610284
1784072439696,0.43311545,0.5809847,-0.13762091,-62.58,5.67,-38.85,49,222.0,7.1610284
1784072439696,0.41164273,0.44970804,-0.14957735,-67.41,-7.21,-42.98,49,222.0,7.1610284
1784072439696,0.24693681,0.39334205,-0.15104139,-58.52,-7.21,-45.43,49,222.0,7.1610284
1784072439696,0.11444009,0.30769497,-0.028061,-47.32,-0.14,-44.1,49,222.0,7.1610284
1784072439696,0.015860565,0.13200872,0.1593377,-10.01,10.85,-36.05,49,222.0,7.1610284
1784072439696,-0.19349891,-0.015616558,0.21277559,56.63,28.98,-19.04,49,222.0,7.1610284
1784072439742,-0.2996427,-0.3328279,0.4587364,117.46,60.97,29.26,49,222.0,7.1610284
1784072439742,-0.090039216,-0.70591724,0.29159042,103.04,59.99,50.54,49,222.0,7.1610284
1784072439742,0.03586928,-0.64515907,0.07247059,83.23,56.7,65.03,49,222.0,7.1610284
1784072439742,0.21911982,-0.70103705,0.03050109,40.25,41.86,70.63,49,222.0,7.1610284
1784072439742,0.28671023,-0.6088018,-0.042945534,16.59,33.670002,67.9,49,222.0,7.1610284
1784072439742,0.280366,-0.6044096,-0.0019520697,7.0,28.210001,59.57,49,222.0,7.1610284
1784072439742,0.29305446,-0.43677562,0.14152505,-2.24,30.59,48.44,49,222.0,7.1610284
1784072439742,0.19423094,-0.28061002,1.3540044,-28.0,56.84,35.07,49,222.0,7.1610284
1784072439788,-0.93260133,-0.24693681,1.7663791,203.7,181.86,-4.83,49,222.0,7.1610284
1784072439788,2.2180393,0.42140305,-1.8088367,232.96,152.95,-19.88,49,222.0,7.1610284
1784072439788,2.2622046,0.41871896,0.37186927,-1.12,112.840004,-43.05,49,222.0,7.1610284
1784072439788,1.3923137,1.6451067,0.023668844,81.13,59.22,-110.46,49,222.0,7.1610284
1784072439788,0.8369499,2.5303705,-1.0021439,109.9,8.75,-233.66,49,222.0,7.1610284
1784072439788,-0.7613072,2.7746232,-0.81328106,80.15,0.98,-308.42,49,222.0,7.1610284
1784072439788,-1.399146,5.491172,-0.060270153,66.92,38.99,-233.94,49,222.0,7.1610284
1784072439788,-3.1164792,2.9537253,-1.8405577,99.96,80.5,-103.39,49,222.0,7.1610284
1784072439882,-0.6397909,1.3415599,0.6371067,-121.87,39.13,6.37,49,222.0,7.1610284
1784072439882,-0.4648366,1.9193726,-0.7605752,2.03,67.13,5.46,49,222.0,7.1610284
1784072439882,-0.21692374,1.9698824,-0.3586928,-22.54,61.81,-9.03,49,222.0,7.1610284
1784072439882,-0.013664488,2.1489847,-0.25938126,2.31,54.39,-29.4,49,222.0,7.1610284
1784072439882,-0.044653594,2.2358518,-0.47459695,6.79,36.75,-37.45,49,222.0,7.1610284
1784072439882,-0.18617864,2.1333683,-0.43043137,-17.64,8.96,-29.54,49,222.0,7.1610284
1784072439882,-0.27450982,1.9730544,-0.43775165,-36.19,-15.26,-15.190001,49,222.0,7.1610284
1784072439882,-0.5070501,1.6182657,-0.32843572,-53.9,-32.06,-3.92,49,222.0,7.1610284
1784072440011,-0.28646624,1.4745446,-0.55389977,-39.9,-44.8,10.15,49,222.0,7.1610284
1784072440011,-0.3311198,1.3393638,-0.4902135,-27.3,-35.77,15.47,49,222.0,7.1610284
1784072440011,-0.29207844,1.2451764,-0.43750766,-19.04,-31.08,18.69,49,222.0,7.1610284
1784072440011,-0.25864923,1.1431808,-0.2747538,-21.0,-28.56,22.89,49,222.0,7.1610284
1784072440011,-0.2074074,1.0228845,-0.20594336,-22.12,-29.05,28.28,50,222.0,7.1610284
1784072440011,-0.14494118,0.93089324,-0.25010893,-32.06,-32.83,33.25,50,222.0,7.1610284
1784072440011,-0.02293682,0.7107974,-0.19227886,-39.13,-37.87,36.33,50,222.0,7.1610284
1784072440011,0.015372549,0.5834248,-0.2742658,-44.03,-41.23,39.34,50,222.0,7.1610284
1784072440102,0.08076689,0.42774728,0.13810892,-39.34,-42.84,40.53,50,222.0,7.1610284
1784072440102,0.14762528,0.40676254,0.22863616,-10.71,-49.63,39.27,50,222.0,7.1610284
1784072440102,0.27548584,0.3691852,0.009272331,5.04,-51.8,40.6,50,222.0,7.1610284
1784072440102,0.252793,0.13542484,0.020252723,-8.05,-43.54,40.25,50,222.0,7.1610284
1784072440102,0.2962266,-0.0070762527,0.19496296,-24.08,-34.16,30.8,50,222.0,7.1610284
1784072440102,0.43018737,-0.40432245,0.6361307,4.48,-27.58,12.39,50,222.0,7.1610284
1784072440102,0.49484965,-0.33258387,0.476305,36.82,-23.38,-8.68,50,222.0,7.1610284
1784072440102,0.45532027,-0.44067973,0.60660565,87.64,-19.11,-21.77,50,222.0,7.1610284
1784072440369,0.30037472,-0.94797385,-0.03172113,51.52,-13.65,-32.9,50,222.0,7.1610284
1784072440369,0.18715468,-1.1165838,-0.08857516,-1.61,-8.75,-32.13,50,222.0,7.1610284
1784072440369,-0.007808279,-0.86818296,0.07100654,-37.59,-9.66,-31.710001,50,222.0,7.1610284
1784072440369,0.34795642,-0.50534207,1.5272505,-65.52,-60.13,-30.03,50,222.0,7.1610284
1784072440369,0.9860392,-0.04733769,2.825621,44.52,-100.03,-14.84,50,222.0,7.1610284
1784072440369,1.0707103,0.34478432,1.2500566,174.79,-101.15,19.39,50,222.0,7.1610284
1784072440369,-1.680488,-0.2098475,-1.1331764,261.59,-58.1,8.19,50,222.0,7.1610284
1784072440369,-1.6646274,0.65955555,-0.588305,161.49,-40.74,-9.1,50,222.0,7.1610284
1784072440412,-1.6094815,1.9567059,-0.615878,-85.26,34.02,103.6,50,222.0,7.1610284
1784072440412,-0.94675374,4.260148,-0.448976,42.7,-2.17,216.65,50,222.0,7.1610284
1784072440412,0.86427885,5.0231633,-0.5746405,175.14,49.420002,219.03,50,222.0,7.1610284
1784072440412,2.2277994,2.7045925,-2.2609847,-31.5,-14.0,123.48,50,222.0,7.1610284
1784072440412,0.77253157,1.2744576,0.7086013,-208.95,-35.49,72.87,50,222.0,7.1610284
1784072440412,0.4360436,1.2141873,0.40041828,-69.090004,-15.12,45.36,50,222.0,7.1610284
1784072440412,0.3255076,1.7463703,-0.838658,-7.98,-17.85,27.23,50,222.0,7.1610284
1784072440412,0.0729586,1.9076601,-0.35088453,-78.61,-31.36,18.06,50,222.0,7.1610284
1784072440460,-0.34649238,1.9613421,-0.587085,-51.45,-25.2,7.84,50,222.0,7.1610284
1784072440460,-0.3181874,1.8166449,-0.46874073,-68.81,-14.49,3.43,50,222.0,7.1610284
1784072440460,-0.25059694,1.7739434,-0.27938998,-65.45,-1.33,-9.31,50,222.0,7.1610284
1784072440460,-0.21716776,1.7732114,-0.30135074,-47.95,5.25,-22.12,50,222.0,7.1610284
1784072440460,-0.19691503,1.6341263,-0.26426142,-37.8,5.18,-27.51,50,222.0,7.1610284
1784072440460,-0.22473203,1.5601916,-0.25010893,-32.97,15.54,-26.25,50,222.0,7.1610284
1784072440460,-0.16592592,1.4464836,-0.3665011,-35.98,14.49,-23.94,50,222.0,7.1610284
1784072440460,-0.22814815,1.3330196,-0.27597386,-40.81,11.69,-23.1,50,222.0,7.1610284
1784072440553,-0.10687582,1.1583093,-0.17641829,-40.81,26.81,-27.02,51,216.0,7.1610284
1784072440553,0.013664488,0.88379955,-0.1820305,-33.25,29.4,-28.98,51,216.0,7.1610284
1784072440553,0.08515904,0.72690195,-0.084427014,-25.41,25.62,-30.73,51,216.0,7.1610284
1784072440553,0.22204792,0.6666318,-0.119564265,-26.53,12.88,-35.0,51,216.0,7.1610284
1784072440553,0.37674946,0.4977778,-0.12200436,-41.51,-4.06,-38.85,51,216.0,7.1610284
1784072440553,0.3181874,0.4145708,-0.09272331,-50.19,-13.16,-40.81,51,216.0,7.1610284
1784072440553,0.20008714,0.34454033,0.005856209,-43.33,-14.14,-41.02,51,216.0,7.1610284
1784072440553,0.14347713,0.17031808,0.19252288,-17.92,-6.65,-36.82,51,216.0,7.1610284
1784072440907,-0.17715032,-0.10541177,0.32770368,56.63,13.86,-15.96,51,216.0,7.1610284
1784072440907,-0.31452724,-0.13298476,0.4397037,97.65,37.59,2.17,51,216.0,7.1610284
1784072440907,-0.25669715,-0.34893245,0.3808976,117.11,51.38,23.24,51,216.0,7.1610284
1784072440907,-0.10126361,-0.57805663,0.18739869,110.88,54.32,40.81,51,216.0,7.1610284
1784072440907,0.0475817,-0.73763835,-0.06417429,69.23,46.62,53.69,51,216.0,7.1610284
1784072440907,0.26938564,-0.76277125,0.013176471,18.48,37.59,57.82,51,216.0,7.1610284
1784072440907,0.43189543,-0.6219782,-0.02098475,6.86,36.61,53.83,51,216.0,7.1610284
1784072440907,0.47240084,-0.48923746,0.048801742,8.68,34.51,46.34,51,216.0,7.1610284
1784072440954,0.044165578,-0.28671023,1.8715469,-16.52,77.14,27.86,51,216.0,7.1610284
1784072440954,-0.71811765,-0.34795642,2.5386665,72.66,154.63,6.65,51,216.0,7.1610284
1784072440954,0.0756427,0.11004794,0.0024400873,258.51,157.99,-8.89,52,204.0,7.1610284
1784072440954,1.9074161,0.48386928,-1.2690893,93.8,120.05,-17.710001,52,204.0,7.1610284
1784072440954,1.6861001,0.37748146,0.73519826,9.31,84.14,-42.77,52,204.0,7.1610284
1784072440954,1.5880086,2.3910415,-0.61783004,46.13,9.38,-127.26,52,204.0,7.1610284
1784072440954,0.589281,2.5952766,-0.8415861,122.92,7.14,-267.47,52,204.0,7.1610284
1784072440954,-0.83084965,4.8782225,-1.1326885,5.88,-35.63,-302.82,52,204.0,7.1610284
1784072441045,-2.042353,1.8029804,-0.91844887,-116.76,63.21,-47.32,52,204.0,7.1610284
1784072441045,-0.6944488,1.4481916,0.6910327,-157.92,50.96,-1.47,52,204.0,7.1610284
1784072441045,-0.475085,2.0870066,-0.5097342,-6.02,82.18,3.5,52,204.0,7.1610284
1784072441045,-0.35186055,2.041621,-0.5072941,-26.18,82.74,-3.5,52,204.0,7.1610284
1784072441045,-0.102727674,2.0813944,-0.16299781,-24.01,72.31,-22.4,52,204.0,7.1610284
1784072441045,-0.06856645,2.2033987,-0.50509804,-14.49,58.170002,-32.83,52,204.0,7.1610284
1784072441045,-0.18983878,2.154597,-0.3757734,-29.26,33.53,-27.86,52,204.0,7.1610284
1784072441045,-0.31403923,2.0630937,-0.44019175,-40.95,8.54,-14.0,52,204.0,7.1610284
1784072441091,-0.33917212,1.5899607,-0.42384312,-75.04,-28.7,6.51,52,204.0,7.1610284
1784072441091,-0.3135512,1.3598605,-0.3808976,-62.79,-33.53,9.7300005,52,204.0,7.1610284
1784072441091,-0.3691852,1.2951982,-0.44067973,-39.62,-28.42,11.4800005,52,204.0,7.1610284
1784072441091,-0.32721567,1.1910065,-0.39358607,-27.44,-19.95,12.6,52,204.0,7.1610284
1784072441091,-0.2015512,1.1683137,-0.34283224,-22.75,-21.77,15.89,52,204.0,7.1610284
1784072441091,-0.116636164,0.978719,-0.19008279,-9.87,-29.89,22.61,53,210.0,7.1610284
1784072441091,-0.11907625,0.8945359,-0.33941612,-17.43,-44.87,32.27,53,210.0,7.1610284
1784072441091,-0.14884531,0.66150767,-0.33014378,-30.94,-57.33,40.04,53,210.0,7.1610284
1784072441136,-0.16665795,0.3579608,-0.08515904,-16.8,-57.05,49.98,53,210.0,7.1610284
1784072441136,-0.1066318,0.23449236,0.06637037,12.32,-57.96,52.78,53,210.0,7.1610284
1784072441136,-0.0065882355,0.21619171,-0.07661873,19.39,-56.63,55.02,53,210.0,7.1610284
1784072441136,0.1481133,0.022448802,-0.1007756,-16.94,-47.04,55.09,53,210.0,7.1610284
1784072441136,0.37845752,-0.20618735,0.06271024,-42.7,-33.25,47.46,53,210.0,7.1610284
1784072441136,0.63417864,-0.34405228,0.4741089,-22.61,-29.19,26.67,53,210.0,7.1610284
1784072441136,0.7144575,-0.25010893,0.80083656,76.37,-24.99,1.33,53,210.0,7.1610284
1784072441136,0.6883486,-0.3252636,0.33966014,113.96,-24.29,-23.24,53,210.0,7.1610284
1784072441182,0.47459695,-0.53120697,0.08003486,72.03,-0.7,-47.74,53,210.0,7.1610284
1784072441182,0.38455772,-0.88111544,-0.039773423,24.08,-0.14,-47.74,53,210.0,7.1610284
1784072441182,0.07783878,-0.83597386,-0.252793,-16.73,-0.07,-44.59,53,210.0,7.1610284
1784072441182,0.012200436,-0.7988845,-0.005124183,-69.37,-10.85,-43.4,53,210.0,7.1610284
1784072441182,0.3333159,-0.23693246,1.654135,-67.9,-55.72,-36.19,53,210.0,7.1610284
1784072441182,1.1204879,0.033673204,3.553011,51.66,-104.090004,-14.0,53,210.0,7.1610284
1784072441182,0.643451,0.17885838,1.3215512,261.1,-104.3,16.17,53,210.0,7.1610284
1784072441182,-2.3034422,0.0107363835,-1.8290893,290.99,-54.670002,3.43,53,210.0,7.1610284
1784072441270,-1.3588846,2.1994946,0.26718953,117.74,-18.48,65.73,53,210.0,7.1610284
1784072441270,-1.8930196,2.9839826,-0.57024837,-81.27,19.18,158.76,53,210.0,7.1610284
1784072441270,-0.37943354,4.7915993,-0.726658,36.12,11.83,263.55,53,210.0,7.1610284
1784072441270,1.5360348,4.3562875,-0.68224835,159.18001,28.210001,201.32,53,210.0,7.1610284
1784072441270,1.8805752,2.1404443,-1.4733247,-74.2,-9.38,104.51,53,210.0,7.1610284
1784072441270,0.71640956,1.2400523,0.9050283,-182.77,-28.14,62.86,53,210.0,7.1610284
1784072441270,0.5712244,1.2637211,0.09369934,-35.0,-18.48,43.61,53,210.0,7.1610284
1784072441270,0.27011764,1.8566623,-0.8047407,-35.14,-23.94,28.7,53,210.0,7.1610284
1784072441317,-0.37040523,1.8910676,-0.15884967,-71.82,-38.29,13.79,53,210.0,7.1610284
1784072441317,-0.54975164,1.9096122,-0.5719564,-45.22,-33.95,11.76,53,210.0,7.1610284
1784072441317,-0.46630067,1.8503181,-0.43457952,-62.65,-25.13,6.02,53,210.0,7.1610284
1784072441317,-0.34576035,1.824941,-0.26108932,-63.28,-14.49,-6.58,53,210.0,7.1610284
1784072441317,-0.24693681,1.7136731,-0.29891068,-51.87,-9.7300005,-16.45,53,210.0,7.1610284
1784072441317,-0.18178649,1.6277821,-0.26255336,-42.7,-2.59,-17.43,53,210.0,7.1610284
1784072441317,-0.11932026,1.5284706,-0.31111112,-33.81,3.22,-15.96,53,210.0,7.1610284
1784072441317,-0.09565142,1.4152505,-0.40895858,-31.01,2.8,-13.02,53,210.0,7.1610284
1784072441494,0.017324617,1.1544052,-0.19227886,-38.22,14.63,-13.79,54,204.0,7.1610284
1784072441494,0.03172113,1.0702221,-0.22717212,-22.47,23.8,-20.37,54,204.0,7.1610284
1784072441494,0.075886704,0.9548061,-0.32331154,-16.24,28.77,-28.84,54,204.0,7.1610284
1784072441494,0.2074074,0.81328106,-0.26938564,-31.64,25.34,-37.31,54,204.0,7.1610284
1784072441494,0.40163833,0.6776122,-0.24108061,-50.26,10.22,-44.03,54,204.0,7.1610284
1784072441494,0.6105098,0.23644444,-0.06734641,-65.45,-3.29,-48.58,54,204.0,7.1610284
1784072441494,0.3472244,0.38870588,-0.11932026,-58.73,-7.77,-51.03,54,204.0,7.1610284
1784072441494,0.21765578,0.30940303,0.01903268,-41.58,-5.04,-50.4,54,204.0,7.1610284
1784072441675,-0.21789977,0.039773423,0.252061,23.87,14.56,-31.99,54,204.0,7.1610284
1784072441675,-0.3213595,-0.30501089,0.5536558,58.24,28.0,-12.18,54,204.0,7.1610284
1784072441675,-0.38236165,-0.33917212,0.5482876,109.9,52.01,13.3,54,204.0,7.1610284
1784072441675,-0.19496296,-0.54169935,0.38187364,125.37,62.65,36.82,54,204.0,7.1610284
1784072441675,0.0026840959,-0.7859521,0.13615687,103.6,63.77,55.02,54,204.0,7.1610284
1784072441675,0.16861002,-0.7539869,-0.008540305,46.83,49.07,64.4,54,204.0,7.1610284
1784072441675,0.40115032,-0.64881915,-0.027816994,15.82,42.14,65.1,54,204.0,7.1610284
1784072441675,0.46020046,-0.5722005,0.025376907,7.0,35.7,59.36,54,204.0,7.1610284
1784072441720,0.18373856,-0.22619607,1.4904052,-22.960001,68.88,30.31,54,204.0,7.1610284
1784072441720,-0.3250196,-0.3865098,2.296854,56.84,134.4,9.31,54,204.0,7.1610284
1784072441720,-0.48045316,-0.13225272,1.1563573,212.8,172.9,-9.45,54,204.0,7.1610284
1784072441720,1.9796427,0.43921572,-1.3095948,149.03,140.84,-26.6,54,204.0,7.1610284
1784072441720,1.8583704,0.07661873,0.41042265,21.07,103.81,-41.09,54,204.0,7.1610284
1784072441720,0.99653155,1.4030501,-0.40115032,76.16,44.03,-87.5,54,204.0,7.1610284
1784072441720,0.7866841,2.5384226,-0.14860131,6.65,-0.91,-191.8,54,204.0,7.1610284
1784072441720,-0.504122,2.9742222,-0.66272765,141.96,11.62,-287.0,54,204.0,7.1610284
1784072441811,-3.4385707,3.0881743,-2.2163312,89.88,60.62,-119.91,54,204.0,7.1610284
1784072441811,-1.3859695,1.2981263,0.25816122,-250.6,14.42,-31.5,54,204.0,7.1610284
1784072441811,-0.62856644,1.5479913,0.8042527,-87.57,42.7,-9.45,54,204.0,7.1610284
1784072441811,-0.34527233,2.1965663,-0.9987277,36.96,69.3,-9.59,54,204.0,7.1610284
1784072441811,-0.05514597,2.1248279,-0.31721133,-32.55,55.86,-23.45,54,204.0,7.1610284
1784072441811,0.06563834,2.1436167,-0.2132636,-10.99,50.05,-42.35,54,204.0,7.1610284
1784072441811,0.028061,2.239756,-0.5133943,-17.710001,29.89,-43.4,54,204.0,7.1610284
1784072441811,-0.10297168,2.0855424,-0.3025708,-32.83,3.01,-31.36,54,204.0,7.1610284
1784072442034,-0.26352942,1.7895598,-0.38040957,-65.31,-31.78,4.2,54,204.0,7.1610284
1784072442034,-0.32965577,1.5967929,-0.40456644,-58.52,-45.99,9.17,54,204.0,7.1610284
1784072442034,-0.35478866,1.4660044,-0.44848803,-48.02,-36.54,11.69,54,204.0,7.1610284
1784072442034,-0.2913464,1.3276514,-0.40456644,-42.77,-23.59,13.79,54,204.0,7.1610284
1784072442034,-0.18105447,1.2244358,-0.37162527,-36.4,-18.06,14.84,54,204.0,7.1610284
1784072442034,-0.13469282,1.0831547,-0.24010459,-28.91,-16.38,17.99,55,204.0,7.1610284
1784072442034,-0.105167754,1.0572898,-0.21594772,-17.36,-25.41,21.91,55,204.0,7.1610284
1784072442034,-0.12298039,0.93040526,-0.33209586,-29.61,-32.34,28.77,55,204.0,7.1610284
1784072442304,-0.116636164,0.6080697,-0.35503268,-50.89,-50.96,39.83,55,204.0,7.1610284
1784072442304,-0.1456732,0.50534207,-0.21106753,-34.51,-54.11,42.91,55,204.0,7.1610284
1784072442304,-0.07076252,0.2430327,0.075886704,-3.85,-58.1,47.6,55,204.0,7.1610284
1784072442304,0.0029281045,0.20960349,0.029525053,21.14,-60.48,51.170002,55,204.0,7.1610284
1784072442304,0.16128977,0.11297604,-0.06954248,6.37,-52.08,53.41,55,204.0,7.1610284
1784072442304,0.38821787,-0.18813072,0.05929412,-24.08,-36.68,49.07,55,204.0,7.1610284
1784072442304,0.5355991,-0.56195205,0.44385186,-0.28,-30.66,31.78,55,204.0,7.1610284
1784072442304,0.5680523,-0.3584488,0.5290109,94.5,-24.99,10.71,55,204.0,7.1610284
1784072442843,0.50094986,-0.69127667,0.29256645,23.1,-18.13,-30.45,55,204.0,7.1610284
1784072442843,0.45239213,-0.61172986,0.13005665,51.52,-2.94,-38.43,55,204.0,7.1610284
1784072442843,0.40481046,-0.7605752,-0.065394334,12.46,-1.54,-42.84,55,204.0,7.1610284
1784072442843,0.12371241,-0.82377344,-0.120540306,-15.82,5.95,-41.16,55,204.0,7.1610284
1784072442843,-0.031477123,-0.82328546,0.063686274,-59.15,-0.14,-44.170002,55,204.0,7.1610284
1784072442843,0.28963834,-0.21179956,1.6085054,-63.91,-48.72,-42.49,55,204.0,7.1610284
1784072442843,1.1563573,0.04928976,3.4239302,44.170002,-98.91,-22.89,55,204.0,7.1610284
1784072442843,0.8018126,0.4084706,1.5880086,225.33,-106.68,12.6,55,204.0,7.1610284
1784072443118,-1.8466579,0.79376036,-0.13420479,122.43,-63.84,4.76,55,204.0,7.1610284
1784072443118,-1.3476601,1.9947712,-0.41359478,129.08,-21.49,64.75,55,204.0,7.1610284
1784072443118,-1.7197733,2.9063878,-0.50583005,-84.49,17.43,160.86,55,204.0,7.1610284
1784072443118,-0.107363835,4.825516,-0.6976209,10.71,12.95,265.51,55,204.0,7.1610284
1784072443118,1.9208367,4.867486,-0.5460915,186.55,30.45,184.17,55,204.0,7.1610284
1784072443118,1.9115642,1.9637821,-1.703669,-87.29,1.6800001,100.1,55,204.0,7.1610284
1784072443118,0.8071808,0.99823964,0.96920264,-244.58,-23.87,68.53,55,204.0,7.1610284
1784072443118,0.5307189,1.0543617,0.59196514,-55.72,-15.05,45.43,55,204.0,7.1610284
