timestamp_ms,accX_g,accY_g,accZ_g,gyrX,gyrY,gyrZ,step_count,cadence_spm,peak_impact_g
1784073124823,0.28695425,0.32697168,0.018300654,1.82,-31.5,12.88,0,0.0,0.4354172
1784073124823,0.2552331,0.31599128,0.16812201,-4.41,-38.920002,9.8,0,0.0,0.43961284
1784073124823,0.15811765,0.24498475,0.07735076,3.08,-38.5,8.68,0,0.0,0.43961284
1784073124823,-0.06246623,0.1793464,-0.18154249,9.03,-29.89,3.29,0,0.0,0.43961284
1784073124823,-0.14469717,0.079058826,-0.20716341,11.13,-15.82,-1.05,0,0.0,0.43961284
1784073124823,-0.094187364,0.06515033,-0.051241834,5.39,-1.82,-3.3600001,0,0.0,0.43961284
1784073124823,0.18007843,-0.2132636,0.27524182,0.35,3.71,-6.23,0,0.0,0.43961284
1784073124823,0.32428756,-0.106387794,1.0904748,16.66,-9.1,-7.91,0,0.0,1.1426357
1784073124952,0.8628148,-0.09662745,2.0333247,58.03,-47.39,-2.8700001,0,0.0,2.2109263
1784073124952,1.2166275,0.05148584,1.4498998,119.49,-69.02,14.56,0,0.0,2.2109263
1784073124952,-0.33014378,-0.19081481,0.3211155,144.9,-63.49,12.46,1,0.0,2.2109263
1784073124952,-1.4179347,-0.20106317,-0.40676254,87.01,-41.3,-0.21000001,1,0.0,2.2109263
1784073124952,-1.3037386,0.3303878,-0.013908497,45.920002,-23.24,12.18,1,0.0,2.2109263
1784073124952,-0.96700656,1.6758518,0.09369934,71.05,-15.82,68.53,1,0.0,2.2109263
1784073124952,-0.5192505,3.0037472,-0.8879477,131.6,-23.31,144.41,1,0.0,3.1749911
1784073124952,0.09199129,4.980462,-0.59269714,134.82,42.98,174.37,1,0.0,5.0164485
1784073125000,1.5511634,2.6753116,-0.9465098,95.48,6.65,114.31,1,0.0,5.0164485
1784073125000,1.4262309,1.2693332,0.21057951,-59.78,-0.77,49.35,1,0.0,5.0164485
1784073125000,0.43433553,1.2505447,0.27524182,-36.05,22.47,5.25,1,0.0,5.0164485
1784073125000,0.1483573,1.622658,-0.15348148,-6.51,30.94,-9.87,1,0.0,5.0164485
1784073125000,-9.7603485E-4,1.6692636,-0.061490197,-27.44,24.85,-10.5,1,0.0,5.0164485
1784073125000,-0.19740304,1.761987,-0.11273203,-35.420002,13.79,-2.1,1,0.0,5.0164485
1784073125000,-0.28671023,1.7256296,-0.18983878,-28.98,3.99,12.95,1,0.0,5.0164485
1784073125000,-0.32892373,1.6641395,-0.16714597,-23.52,1.6800001,27.23,1,0.0,5.0164485
1784073125093,-0.30745098,1.6570631,-0.19789107,-22.75,3.92,34.44,1,0.0,5.0164485
1784073125093,-0.21643573,1.626806,-0.21033551,-23.24,6.7200003,30.24,1,0.0,5.0164485
1784073125093,-0.15860566,1.5470153,-0.1991111,-25.41,9.59,18.62,1,0.0,5.0164485
1784073125093,-0.15201743,1.4618562,-0.17715032,-29.12,8.4,7.42,1,0.0,5.0164485
1784073125093,-0.07027451,1.3974379,-0.20130719,-33.46,5.81,1.75,1,0.0,5.0164485
1784073125093,-0.11639216,1.2920262,-0.15201743,-36.26,6.37,-0.21000001,1,0.0,5.0164485
1784073125093,-0.085403055,1.2132113,-0.15348148,-37.66,-0.14,-1.4,1,0.0,5.0164485
1784073125093,-0.06295425,1.145865,-0.13103268,-35.84,-1.75,-3.3600001,2,12.0,5.0164485
1784073125138,-0.073934644,1.0799825,-0.19252288,-36.33,-6.79,-7.21,2,12.0,5.0164485
1784073125138,-0.13932897,1.0219084,-0.14664924,-37.66,-10.29,-11.34,2,12.0,5.0164485
1784073125138,-0.098091505,0.924305,-0.252061,-33.95,-8.26,-14.77,2,12.0,5.0164485
1784073125138,-0.16348584,0.8620828,-0.3662571,-29.33,-5.25,-17.710001,2,12.0,5.0164485
1784073125138,-0.07979085,0.73739433,-0.46410456,-28.91,-8.68,-20.02,2,12.0,5.0164485
1784073125138,-0.098091505,0.6663878,-0.4726449,-27.79,-5.67,-19.53,2,12.0,5.0164485
1784073125138,-0.025132896,0.5370632,-0.46044445,-40.11,-15.12,-19.39,2,12.0,5.0164485
1784073125138,0.032453157,0.4289673,-0.35893682,-49.14,-17.15,-19.53,2,12.0,5.0164485
1784073125183,0.055877995,0.28793028,-0.17983443,-49.35,-11.4800005,-19.32,2,12.0,5.0164485
1784073125183,-0.010004357,0.43506756,-0.057586055,-24.57,1.4,-18.83,2,12.0,5.0164485
1784073125183,-0.07539869,0.41774294,0.14030501,-8.96,13.51,-16.17,2,12.0,5.0164485
1784073125183,-0.07173856,0.37455335,0.28988236,8.54,27.51,-10.43,2,12.0,5.0164485
1784073125183,-0.010248366,0.3023268,0.27182573,21.56,38.43,-1.82,2,12.0,5.0164485
1784073125183,-0.037089325,0.3604009,0.02830501,29.33,39.97,8.61,2,12.0,5.0164485
1784073125183,0.059782133,0.17129412,-0.101019606,23.24,31.22,17.92,2,12.0,5.0164485
1784073125183,0.17227016,0.06417429,-0.121272326,17.43,20.51,25.83,2,12.0,5.0164485
1784073125314,0.2381525,-0.010980392,-0.087843135,11.83,5.46,31.22,2,12.0,5.0164485
1784073125314,0.17495424,-0.08101089,0.27816993,7.4900002,-0.63,31.22,2,12.0,5.0164485
1784073125314,0.042945534,-0.17544226,0.7600872,21.07,12.39,27.3,2,12.0,5.0164485
1784073125314,-0.03586928,-0.20472331,1.0424052,60.27,34.65,18.55,2,12.0,5.0164485
1784073125314,-0.16861002,-0.11322004,1.0685141,103.46,61.39,4.9,2,12.0,5.0164485
1784073125314,-0.1288366,-0.09565142,0.73495424,120.89,101.85,-1.19,2,12.0,5.0164485
1784073125314,0.90649235,-0.06637037,-0.124688454,82.81,87.99,-4.34,2,12.0,5.0164485
1784073125314,1.2476165,0.24034858,-0.25254902,22.33,64.89,-23.73,2,12.0,5.0164485
1784073125363,0.9457778,1.0572898,0.041237473,-10.36,25.34,-72.24,2,12.0,5.0164485
1784073125363,0.4450719,2.268549,0.030013073,49.56,21.0,-167.09,2,12.0,5.0164485
1784073125363,-0.3665011,3.246048,-0.46703267,157.29,-5.7400002,-240.17,2,12.0,5.0164485
1784073125363,-1.2127234,4.3775163,-0.37186927,152.67,-58.66,-176.47,2,12.0,5.0164485
1784073125363,-2.5125577,2.5767322,-1.0265447,112.49,-2.94,-72.73,2,12.0,5.0164485
1784073125363,-1.2703093,1.4437996,-0.2637734,-90.58,7.91,-6.16,2,12.0,5.0164485
1784073125363,-0.39553812,1.3579085,0.5397473,-87.22,8.82,17.01,2,12.0,5.0164485
1784073125363,-0.08101089,1.6612114,-0.26133332,8.82,23.31,12.95,2,12.0,5.0164485
1784073125408,0.056122,1.8278692,-0.4309194,6.44,31.01,-4.9,2,12.0,5.0164485
1784073125408,0.21521568,1.7322179,-0.0978475,-18.48,28.14,-25.9,2,12.0,5.0164485
1784073125408,0.2405926,1.73173,-0.11858824,-6.58,20.51,-36.89,2,12.0,5.0164485
1784073125408,0.17129412,1.7349019,-0.2066754,-8.61,5.67,-35.91,2,12.0,5.0164485
1784073125408,0.0978475,1.7819957,-0.23302832,-27.09,-13.2300005,-27.16,2,12.0,5.0164485
1784073125408,0.027084969,1.6309543,-0.22741611,-52.08,-25.9,-14.28,2,12.0,5.0164485
1784073125408,-0.08027887,1.4989456,-0.17105012,-62.510002,-27.93,-1.4,2,12.0,5.0164485
1784073125408,-0.1649499,1.3957298,-0.17959042,-53.06,-27.16,7.91,2,12.0,5.0164485
1784073125494,-0.21667975,1.3064227,-0.18715468,-39.76,-12.11,15.47,2,12.0,5.0164485
1784073125494,-0.20862745,1.2432244,-0.21082354,-31.64,0.0,19.95,2,12.0,5.0164485
1784073125494,-0.14884531,1.1434249,-0.18032244,-29.47,-0.35,21.49,3,18.0,5.0164485
1784073125494,-0.11858824,1.0421612,-0.10760784,-28.7,2.1,23.17,3,18.0,5.0164485
1784073125494,7.320261E-4,0.95553815,-0.18300654,-26.32,-7.14,23.94,3,18.0,5.0164485
1784073125494,0.07661873,0.867695,-0.14957735,-28.35,-13.3,25.41,3,18.0,5.0164485
1784073125494,-0.024888888,0.7915643,-0.363817,-23.87,-21.42,27.37,3,18.0,5.0164485
1784073125494,0.013176471,0.6349107,-0.4062745,-32.97,-31.29,28.84,3,18.0,5.0164485
1784073125589,-0.008540305,0.5282788,-0.29769063,-34.16,-35.07,30.59,3,18.0,5.0164485
1784073125589,0.08979521,0.43579954,-0.16690196,-26.95,-44.66,31.92,3,18.0,5.0164485
1784073125589,0.04538562,0.3252636,-0.06295425,-10.99,-52.36,33.11,3,18.0,5.0164485
1784073125589,0.07808279,0.40920264,-0.13176471,10.92,-63.91,34.02,3,18.0,5.0164485
1784073125589,0.034405228,0.39065796,-0.23937255,15.54,-65.24,34.44,3,18.0,5.0164485
1784073125589,0.058562092,0.18910675,-0.13640088,-5.6,-56.21,31.99,3,18.0,5.0164485
1784073125589,0.12395642,0.14494118,-0.004148148,-17.78,-44.87,22.960001,3,18.0,5.0164485
1784073125589,0.1093159,-0.02830501,0.0148845315,-7.98,-35.77,12.46,3,18.0,5.0164485
1784073125676,0.14616123,-0.052705884,-0.14054902,6.09,-23.8,1.96,3,18.0,5.0164485
1784073125676,0.24034858,-0.13640088,-0.029769063,6.86,-11.76,-7.98,3,18.0,5.0164485
1784073125676,0.3194074,-0.13444881,0.34942046,4.97,-3.5,-14.56,3,18.0,5.0164485
1784073125676,0.68810457,-0.14152505,1.401342,-18.41,-20.23,-17.57,3,18.0,5.0164485
1784073125676,1.1053594,-0.1481133,2.07017,8.26,-53.41,-11.76,3,18.0,5.0164485
1784073125676,0.5463355,-0.030989105,1.0014118,76.37,-66.78,-2.38,4,24.0,5.0164485
1784073125676,-0.9125926,-0.63344663,-0.17861438,85.61,-48.3,-16.45,4,24.0,5.0164485
1784073125676,-0.8176732,-0.39334205,-0.065394334,92.05,-26.460001,-32.13,4,24.0,5.0164485
1784073125721,-0.6695599,0.27304575,0.03220915,125.93,-4.41,-20.44,4,24.0,5.0164485
1784073125721,-0.38333768,1.0592419,-0.09272331,69.23,18.27,21.35,4,24.0,5.0164485
1784073125721,-0.043189544,2.709961,0.16861002,57.47,11.13,81.97,4,24.0,5.0164485
1784073125721,0.20911546,7.5064397,-0.60587364,178.36,36.54,130.34,4,24.0,7.533754
1784073125721,0.51315033,2.5796602,-1.7431982,136.36,17.99,116.48,4,24.0,7.533754
1784073125721,1.0863268,1.6055773,0.40115032,-149.73,11.13,87.01,4,24.0,7.533754
1784073125721,0.32282352,1.3366798,0.7656993,-41.79,36.19,52.22,4,24.0,7.533754
1784073125721,0.057586055,1.7073289,-0.34673637,20.79,52.71,28.14,4,24.0,7.533754
1784073125813,-0.0014640522,1.7810196,-0.13103268,-31.36,41.3,20.58,4,24.0,7.533754
1784073125813,-0.10492375,1.6175338,-0.03025708,-55.86,29.54,21.14,4,24.0,7.533754
1784073125813,-0.24254465,1.6743878,-0.13347277,-44.31,25.62,24.78,4,24.0,7.533754
1784073125813,-0.34307626,1.711233,-0.25645316,-37.59,23.87,28.49,4,24.0,7.533754
1784073125813,-0.35210457,1.6280261,-0.14786929,-43.68,22.12,28.0,4,24.0,7.533754
1784073125813,-0.32062745,1.5045577,-0.09443137,-39.2,19.95,21.49,4,24.0,7.533754
1784073125813,-0.35332462,1.4203748,-0.1429891,-30.66,14.56,13.02,4,24.0,7.533754
1784073125813,-0.3721133,1.3569325,-0.18032244,-30.1,6.44,7.42,4,24.0,7.533754
1784073125855,-0.3557647,1.2825098,-0.18422659,-35.7,-1.33,5.18,4,24.0,7.533754
1784073125855,-0.29866666,1.2100393,-0.17202614,-38.15,-7.0,5.32,4,24.0,7.533754
1784073125855,-0.26840958,1.1705098,-0.20447929,-34.16,-12.95,6.86,4,24.0,7.533754
1784073125855,-0.17080611,1.0812026,-0.11810021,-29.12,-8.4,7.07,5,30.0,7.533754
1784073125855,-0.07539869,0.9828671,-0.14518519,-21.56,3.5,3.08,5,30.0,7.533754
1784073125855,-0.057586055,0.97896296,-0.23644444,-16.03,4.13,-4.69,5,30.0,7.533754
1784073125855,0.044409584,0.8481742,-0.2918344,-16.52,-1.54,-12.6,5,30.0,7.533754
1784073125855,0.02098475,0.7864401,-0.38162962,-14.0,-1.12,-17.08,5,30.0,7.533754
1784073125989,0.10785185,0.6610196,-0.37845752,-20.23,2.8,-21.77,5,30.0,7.533754
1784073125989,0.1590937,0.4924096,-0.3811416,-27.02,10.57,-24.64,5,30.0,7.533754
1784073125989,0.07100654,0.44970804,-0.4038344,-40.670002,-0.84000003,-26.53,5,30.0,7.533754
1784073125989,0.08589107,0.33380392,-0.3103791,-40.04,-5.53,-26.11,5,30.0,7.533754
1784073125989,0.087355115,0.30891502,-0.22522004,-29.960001,-2.59,-24.57,5,30.0,7.533754
1784073125989,0.10419172,0.17885838,0.0029281045,1.26,11.9,-21.98,5,30.0,7.533754
1784073125989,-0.027328975,0.27060568,-0.030989105,11.76,24.92,-16.59,5,30.0,7.533754
1784073125989,-0.09077124,0.10028758,0.13127668,17.43,35.420002,-7.14,5,30.0,7.533754
1784073126036,-0.12395642,0.16738997,0.13274074,28.14,45.43,5.88,5,30.0,7.533754
1784073126036,-0.10419172,0.16616993,0.11248801,34.72,48.93,18.27,5,30.0,7.533754
1784073126036,-0.025376907,0.07247059,0.010980392,45.36,47.74,28.0,5,30.0,7.533754
1784073126036,0.14860131,-0.06271024,-0.08076689,31.29,36.19,36.82,5,30.0,7.533754
1784073126036,0.23790848,-0.1429891,-0.09150327,12.32,22.89,43.47,5,30.0,7.533754
1784073126036,0.2293682,-0.27524182,0.095407404,-0.98,13.72,46.69,5,30.0,7.533754
1784073126036,0.11273203,-0.29207844,0.6363748,-0.07,19.74,45.43,5,30.0,7.533754
1784073126036,0.039529413,-0.27719387,1.3766972,24.22,44.8,36.47,5,30.0,7.533754
1784073126081,-0.23180829,-0.18983878,1.5987451,87.71,91.91,17.29,5,30.0,7.533754
1784073126081,-0.6300305,-0.2042353,1.2588409,150.15,140.84,10.15,5,30.0,7.533754
1784073126081,1.3859695,-0.105167754,0.0039041394,118.65,135.87,9.87,5,30.0,7.533754
1784073126081,2.0862744,0.34039217,-0.13932897,37.73,118.23,-11.2,5,30.0,7.533754
1784073126081,1.8537341,2.7616906,0.039773423,0.56,48.86,-125.51,5,30.0,7.533754
1784073126081,0.4836253,2.2502484,-0.5614641,113.89,21.28,-266.98,5,30.0,7.533754
1784073126081,-1.0133681,3.5678954,-0.7473987,76.44,-29.26,-295.12,5,30.0,7.533754
1784073126081,-3.0889063,5.4533505,0.4087146,164.57,-9.31,-153.44,5,30.0,7.533754
1784073126168,-2.631146,2.3078344,-1.8627625,90.44,23.52,-30.24,5,30.0,7.533754
1784073126168,-1.0528976,1.1351285,0.13493682,-175.91,-4.83,24.710001,5,30.0,7.533754
1784073126168,-0.5495076,1.3113029,0.82157737,-104.58,13.3,34.72,5,30.0,7.533754
1784073126168,-0.07954685,1.7239215,-0.41603488,7.84,33.46,21.84,5,30.0,7.533754
1784073126168,0.14225708,2.0213683,-0.3726013,-8.05,35.420002,-9.7300005,5,30.0,7.533754
1784073126168,0.30867103,1.8356776,0.089551196,-9.59,35.21,-40.46,5,30.0,7.533754
1784073126168,0.26670152,1.8388497,-0.09662745,8.96,23.17,-55.16,5,30.0,7.533754
1784073126168,0.26450545,1.8042005,-0.17593028,-7.21,2.45,-55.79,5,30.0,7.533754
1784073126262,0.17837037,1.8124967,-0.19984314,-33.04,-16.1,-47.32,5,30.0,7.533754
1784073126262,-0.025376907,1.79078,-0.27084967,-60.2,-25.34,-28.56,5,30.0,7.533754
1784073126262,-0.2015512,1.513342,-0.18520261,-70.49,-21.35,-9.31,5,30.0,7.533754
1784073126262,-0.23668844,1.4357473,-0.223756,-61.25,-15.12,2.17,5,30.0,7.533754
1784073126262,-0.23058824,1.3200872,-0.20911546,-55.44,-7.28,7.0,5,30.0,7.533754
1784073126262,-0.22351198,1.17417,-0.11980827,-48.58,3.22,9.17,5,30.0,7.533754
1784073126262,-0.13566884,1.1134118,-0.09955555,-37.38,8.05,10.43,6,36.0,7.533754
1784073126262,-0.10028758,1.0165403,-0.11736819,-31.43,6.65,11.9,6,36.0,7.533754
1784073126351,-0.044653594,0.9206449,-0.18861873,-31.5,0.28,12.74,6,36.0,7.533754
1784073126351,0.013420479,0.8425621,-0.13908496,-43.26,-2.03,15.05,6,36.0,7.533754
1784073126351,0.0031721133,0.7713115,-0.307939,-47.88,-8.54,17.43,6,36.0,7.533754
1784073126351,-0.0014640522,0.5907451,-0.32697168,-48.58,-14.28,19.25,6,36.0,7.533754
1784073126351,0.033673204,0.504122,-0.34844443,-42.98,-18.83,20.79,6,36.0,7.533754
1784073126351,0.049045753,0.3806536,-0.25425708,-26.04,-24.29,22.12,6,36.0,7.533754
1784073126351,0.10882789,0.2967146,-0.17105012,-2.24,-33.81,23.45,6,36.0,7.533754
1784073126351,0.16006972,0.28695425,-0.2157037,18.2,-39.41,23.8,6,36.0,7.533754
1784073126395,0.14054902,0.20008714,-0.09052724,30.03,-41.51,23.94,6,36.0,7.533754
1784073126395,0.2430327,0.27499783,0.014152505,25.55,-45.36,22.68,6,36.0,7.533754
1784073126395,0.19789107,0.23668844,0.13640088,12.32,-51.38,19.81,6,36.0,7.533754
1784073126395,0.11834422,0.15762964,0.10345969,9.94,-56.7,17.99,6,36.0,7.533754
1784073126395,-0.017568627,0.02269281,-0.085403055,-2.45,-48.51,12.32,6,36.0,7.533754
1784073126395,-0.09077124,-0.012932462,-0.09321132,3.3600001,-35.91,6.16,6,36.0,7.533754
1784073126395,-0.008784314,-0.20765142,-0.05343791,4.2,-26.39,-0.63,6,36.0,7.533754
1784073126395,-7.320261E-4,-0.23034422,-0.09272331,2.8700001,-15.68,-5.11,6,36.0,7.533754
1784073126485,0.07759477,-0.36772114,0.06637037,0.63,-4.9,-9.24,6,36.0,7.533754
1784073126485,0.118832245,-0.35137254,0.5482876,3.01,-10.36,-14.21,6,36.0,7.533754
1784073126485,0.7173856,-0.26401743,1.8686187,3.85,-39.13,-12.18,6,36.0,7.533754
1784073126485,1.4157386,-0.18959478,1.8827711,64.19,-76.23,8.4,6,36.0,7.533754
1784073126485,0.4716688,-0.14762528,0.9892113,137.41,-95.69,17.29,7,42.0,7.533754
1784073126485,-1.2471285,-0.32599562,-0.35210457,150.57,-75.11,-2.66,7,42.0,7.533754
1784073126485,-1.2739694,0.13542484,-0.34039217,94.57,-64.19,-6.7200003,7,42.0,7.533754
1784073126485,-1.1812462,1.1902745,0.05783007,47.95,-42.91,35.49,7,42.0,7.533754
1784073126528,-0.87965137,2.7067885,-0.47581697,101.78,-32.13,114.520004,7,42.0,7.533754
1784073126528,-0.68908066,6.087285,-0.6529673,103.25,-9.52,169.54,7,42.0,7.533754
1784073126528,1.2566448,3.5649674,-1.0389892,132.65,-3.92,124.04,7,42.0,7.533754
1784073126528,1.7756515,1.5404271,-0.23010023,-72.24,-16.17,60.41,7,42.0,7.533754
1784073126528,0.6641917,1.2014989,0.75471896,-62.93,2.45,19.25,7,42.0,7.533754
1784073126528,0.2608453,1.5457952,-0.20716341,19.18,20.44,5.32,7,42.0,7.533754
1784073126528,0.11248801,1.7219696,-0.28793028,-22.26,18.9,3.5,7,42.0,7.533754
1784073126528,2.4400871E-4,1.8122528,-0.13347277,-50.75,7.98,6.16,7,42.0,7.533754
1784073126620,-0.14518519,1.8020045,-0.16104576,-37.59,-3.3600001,13.79,7,42.0,7.533754
1784073126620,-0.21960786,1.8059086,-0.25913724,-31.85,-5.95,23.38,7,42.0,7.533754
1784073126620,-0.29232246,1.7834597,-0.18129848,-31.43,-2.31,25.83,7,42.0,7.533754
1784073126620,-0.2659695,1.7539347,-0.26962963,-23.87,4.48,19.32,7,42.0,7.533754
1784073126620,-0.23986056,1.6360785,-0.23546842,-31.22,8.89,9.59,7,42.0,7.533754
1784073126620,-0.23180829,1.5438432,-0.17885838,-39.76,8.26,1.26,7,42.0,7.533754
1784073126620,-0.19764706,1.4496558,-0.18276253,-43.19,4.41,-2.66,7,42.0,7.533754
1784073126620,-0.23790848,1.3605926,-0.1878867,-43.05,7.56,-2.66,7,42.0,7.533754
1784073126664,-0.13420479,1.2180915,-0.17812636,-41.58,5.32,-3.85,7,42.0,7.533754
1784073126664,-0.15884967,1.1497691,-0.1905708,-36.75,-0.35,-7.07,8,48.0,7.533754
1784073126664,-0.056122,1.0565577,-0.1822745,-30.73,0.0,-10.71,8,48.0,7.533754
1784073126664,-0.11736819,1.0175164,-0.23376034,-19.460001,6.51,-15.26,8,48.0,7.533754
1784073126664,-0.070518516,0.93016124,-0.37162527,-10.36,7.56,-20.72,8,48.0,7.533754
1784073126664,-0.05929412,0.8235294,-0.49753374,-8.19,10.01,-25.27,8,48.0,7.533754
1784073126664,0.049045753,0.6510152,-0.5216906,-17.710001,5.95,-28.56,8,48.0,7.533754
1784073126664,0.16446187,0.42799127,-0.4228671,-24.08,4.97,-31.01,8,48.0,7.533754
1784073126754,0.08637909,0.46898472,-0.43701962,-24.22,4.97,-32.83,8,48.0,7.533754
1784073126754,0.13176471,0.3950501,-0.23864052,-26.32,1.19,-32.62,8,48.0,7.533754
1784073126754,0.1481133,0.39139,-0.0951634,-32.83,0.42000002,-28.07,8,48.0,7.533754
1784073126754,0.07125054,0.33526796,0.07808279,-28.77,6.65,-23.66,8,48.0,7.533754
1784073126754,-0.060270153,0.52535075,0.11614815,19.39,27.72,-15.54,8,48.0,7.533754
1784073126754,-0.0924793,0.20887147,0.33453596,24.22,41.72,-4.69,8,48.0,7.533754
1784073126754,-0.08857516,0.18129848,0.24474074,43.82,50.33,6.58,8,48.0,7.533754
1784073126754,4.8801742E-4,0.04026144,0.11151198,51.03,49.91,15.75,8,48.0,7.533754
1784073126890,0.04001743,0.04587364,-0.07954685,40.6,42.35,23.59,8,48.0,7.533754
1784073126890,0.27036166,-0.18251853,-0.06344226,18.83,28.77,31.85,8,48.0,7.533754
1784073126890,0.32575163,-0.26230937,0.03562527,3.22,14.56,37.59,8,48.0,7.533754
1784073126890,0.2437647,-0.28744227,0.5685403,-8.47,15.61,37.170002,8,48.0,7.533754
1784073126890,0.10321569,-0.30501089,1.3276514,16.38,40.25,30.24,8,48.0,7.533754
1784073126890,-0.033185184,-0.22058389,1.5626318,95.41,78.05,15.75,8,48.0,7.533754
1784073126890,-0.56439215,-0.21204355,1.3388758,160.44,136.5,6.23,8,48.0,7.533754
1784073126890,1.0719303,-0.08271895,-0.1454292,135.38,131.74,3.85,9,54.0,7.533754
1784073126935,1.7600348,-0.028793028,-0.30574292,39.62,116.9,-9.52,9,54.0,7.533754
1784073126935,1.2373681,0.91796076,-0.01708061,5.67,71.68,-52.15,9,54.0,7.533754
1784073126935,0.6600436,2.0338125,-0.044409584,0.98,33.25,-149.24,9,54.0,7.533754
1784073126935,-0.09711547,2.326379,-0.63417864,138.25,18.2,-239.75,9,54.0,7.533754
1784073126935,-0.80254465,5.070013,0.04587364,145.39,-52.57,-219.38,9,54.0,7.533754
1784073126935,-3.3094902,3.2680087,-0.82206535,169.89,-0.84000003,-110.53,9,54.0,7.533754
1784073126935,-1.9647582,1.6065533,-0.9875033,-86.1,14.56,-13.58,9,54.0,7.533754
1784073126935,-0.895756,0.99262744,1.0829107,-169.47,18.83,24.64,9,54.0,7.533754
1784073127160,-0.3750414,1.5562875,-0.0029281045,1.89,37.38,24.29,9,54.0,7.533754
1784073127160,-0.11273203,1.8822832,-0.54657954,35.420002,44.170002,3.3600001,9,54.0,7.533754
1784073127160,0.0419695,1.790048,-0.029037038,11.34,40.18,-26.32,9,54.0,7.533754
1784073127160,0.100531586,1.9166884,-0.1649499,32.06,29.68,-45.01,9,54.0,7.533754
1784073127160,0.07539869,1.9237648,-0.3335599,18.34,9.94,-47.46,9,54.0,7.533754
1784073127160,0.005124183,1.8835033,-0.29403052,-21.14,-13.440001,-40.11,9,54.0,7.533754
1784073127160,-0.10199564,1.7680871,-0.28451416,-53.760002,-31.15,-27.37,9,54.0,7.533754
1784073127160,-0.12151635,1.5240785,-0.20008714,-63.98,-36.61,-15.68,9,54.0,7.533754
1784073127249,-0.16934206,1.4865011,-0.2918344,-57.12,-34.58,-7.4900002,9,54.0,7.533754
1784073127249,-0.24108061,1.3420479,-0.2662135,-46.48,-34.3,-3.99,9,54.0,7.533754
1784073127249,-0.23424837,1.2493247,-0.2571852,-31.92,-30.380001,-1.19,9,54.0,7.533754
1784073127249,-0.20228322,1.146109,-0.2381525,-16.38,-23.1,0.49,10,60.0,7.533754
1784073127249,-0.16616993,1.0821786,-0.2125316,-6.16,-18.06,2.8700001,10,60.0,7.533754
1784073127249,-0.079058826,1.0116601,-0.26206535,-0.84000003,-24.08,4.76,10,60.0,7.533754
1784073127249,-0.06685839,0.924061,-0.24864487,-5.6,-21.0,8.4,10,60.0,7.533754
1784073127249,0.074666664,0.8493943,-0.21228758,-14.42,-28.35,11.06,10,60.0,7.533754
1784073127297,0.038309366,0.70591724,-0.26548147,-18.2,-33.39,14.49,10,60.0,7.533754
1784073127297,0.081498906,0.64003485,-0.30647492,-28.56,-38.57,17.08,10,60.0,7.533754
1784073127297,0.04782571,0.5307189,-0.3218475,-37.45,-42.49,19.11,10,60.0,7.533754
1784073127297,0.049045753,0.37357733,-0.08711111,-46.48,-41.65,21.210001,10,60.0,7.533754
1784073127297,0.061246186,0.30964705,-0.022204792,-27.02,-46.48,22.47,10,60.0,7.533754
1784073127297,0.106387794,0.24474074,-0.039285403,-5.25,-52.15,24.01,10,60.0,7.533754
1784073127297,0.15006536,0.21350762,-0.048801742,10.43,-58.24,23.17,10,60.0,7.533754
1784073127297,0.2186318,0.2213159,-0.0012200436,-0.84000003,-61.04,20.65,10,60.0,7.533754
1784073127433,0.27572984,0.060758173,0.17153813,-22.26,-63.07,15.33,10,60.0,7.533754
1784073127433,0.31452724,0.040505446,0.13078867,-21.14,-57.47,6.02,10,60.0,7.533754
1784073127433,0.24498475,-0.1649499,0.088331155,1.33,-47.88,-5.11,10,60.0,7.533754
1784073127433,0.16006972,-0.23839653,-0.024156863,23.94,-38.78,-14.56,10,60.0,7.533754
1784073127433,0.09955555,-0.29281047,-0.08369499,26.67,-26.880001,-22.75,10,60.0,7.533754
1784073127433,0.12444445,-0.35332462,0.11175599,18.2,-15.68,-27.72,10,60.0,7.533754
1784073127433,0.26108932,-0.26694554,0.8428061,7.28,-19.6,-29.26,10,60.0,7.533754
1784073127433,0.88233554,-0.20765142,1.9708583,-0.98,-50.82,-18.13,10,60.0,7.533754
1784073127523,1.3547364,0.012200436,1.7131852,66.15,-83.090004,2.94,10,60.0,7.533754
1784073127523,-0.18959478,-0.16324182,0.42530718,126.42,-87.64,2.59,11,66.0,7.533754
1784073127523,-1.1878345,-0.3730893,-0.4872854,129.92,-59.5,-17.22,11,66.0,7.533754
1784073127523,-1.007512,0.16446187,-0.4250632,134.82,-30.24,-18.69,12,72.0,7.533754
1784073127523,-0.5678083,1.2668933,-0.23498039,52.78,-4.55,26.95,12,72.0,7.533754
1784073127523,-0.25010893,2.6916602,-0.5099782,75.46,-5.95,107.24,12,72.0,7.533754
1784073127523,-0.2886623,6.8012547,-0.05343791,78.61,15.12,163.8,12,72.0,7.533754
1784073127523,1.2014989,2.771939,-1.2922702,155.05,24.36,129.57,12,72.0,7.533754
1784073127566,1.3315556,1.709769,-0.52803487,-65.52,-2.94,86.1,12,72.0,7.533754
1784073127566,0.46508062,1.1046275,1.0465534,-74.55,6.58,50.05,12,72.0,7.533754
1784073127566,0.10589978,1.513586,-0.20008714,46.97,23.8,31.29,12,72.0,7.533754
1784073127566,0.03391721,2.0943267,-0.5363312,10.78,21.91,22.61,12,72.0,7.533754
1784073127566,-0.15836166,1.84373,-0.32623965,-53.48,7.4900002,19.25,12,72.0,7.533754
1784073127566,-0.24718083,1.6026492,-0.13786492,-49.91,2.52,21.0,12,72.0,7.533754
1784073127566,-0.23595643,1.707573,-0.3535686,-28.14,5.18,20.58,12,72.0,7.533754
1784073127566,-0.251817,1.6824402,-0.31696734,-31.43,7.35,14.91,12,72.0,7.533754
1784073127613,-0.2100915,1.6624314,-0.25669715,-32.55,14.07,3.08,12,72.0,7.533754
1784073127613,-0.17593028,1.568,-0.26108932,-29.89,16.73,-8.47,12,72.0,7.533754
1784073127613,-0.19447495,1.4638083,-0.24742483,-27.16,12.25,-13.72,12,72.0,7.533754
1784073127613,-0.20399128,1.4501438,-0.27841392,-30.31,7.91,-14.07,12,72.0,7.533754
1784073127613,-0.14518519,1.2715294,-0.21301961,-35.77,1.96,-12.46,12,72.0,7.533754
1784073127613,-0.18617864,1.1692898,-0.17471023,-29.61,-3.22,-12.81,13,78.0,7.533754
1784073127613,-0.19935511,1.092671,-0.111999996,-23.87,0.77,-15.68,13,78.0,7.533754
1784073127613,-0.22644009,1.0860828,-0.23839653,-19.04,-0.84000003,-21.14,13,78.0,7.533754
1784073127702,-0.19667102,1.0507015,-0.20911546,-20.58,5.7400002,-26.460001,13,78.0,7.533754
1784073127702,-0.17617428,0.9784749,-0.35747278,-12.32,10.78,-32.06,13,78.0,7.533754
1784073127702,-0.10248367,0.86793894,-0.48386928,-17.15,8.82,-35.0,13,78.0,7.533754
1784073127702,-0.06783442,0.76277125,-0.47362092,-24.57,10.99,-35.63,13,78.0,7.533754
1784073127702,-0.004392157,0.60343355,-0.40432245,-40.81,0.28,-36.12,13,78.0,7.533754
1784073127702,0.16080175,0.2964706,-0.14860131,-38.920002,-4.55,-34.23,13,78.0,7.533754
1784073127702,0.04343355,0.5338911,-0.17910239,-32.34,-10.5,-29.89,13,78.0,7.533754
1784073127702,0.035137255,0.3865098,0.013176471,-26.460001,-12.46,-23.94,13,78.0,7.533754
1784073127748,-0.03050109,0.38016558,0.07149455,-18.34,-5.81,-16.66,13,78.0,7.533754
1784073127748,-0.10955991,0.27206972,0.26450545,-2.94,8.47,-8.75,13,78.0,7.533754
1784073127748,-0.1373769,0.18129848,0.33795208,25.69,25.55,0.84000003,13,78.0,7.533754
1784073127748,-0.070518516,0.11736819,0.1878867,52.15,36.89,9.17,13,78.0,7.533754
1784073127748,0.052705884,-0.0070762527,-0.001708061,64.82,36.96,14.63,13,78.0,7.533754
1784073127748,0.117124185,-0.0812549,-0.124200426,54.81,29.68,18.62,13,78.0,7.533754
1784073127748,0.26889762,-0.26767758,-0.08564706,32.34,17.99,21.42,13,78.0,7.533754
1784073127748,0.26133332,-0.33795208,-0.03416122,15.54,5.53,22.54,13,78.0,7.533754
1784073127794,0.17910239,-0.33014378,0.41749892,7.77,3.5,20.3,13,78.0,7.533754
1784073127794,0.054901965,-0.35088453,1.3239913,31.78,20.58,14.28,13,78.0,7.533754
1784073127794,-0.13396078,-0.29037037,1.6280261,105.840004,60.06,2.59,13,78.0,7.533754
1784073127794,-0.6185621,-0.24108061,0.95505005,171.78,99.19,-4.34,14,84.0,7.533754
1784073127794,1.118292,0.018056644,-0.53120697,119.28,81.06,-4.62,14,84.0,7.533754
1784073127794,1.4357473,-0.08613508,0.08564706,12.11,60.34,-10.01,14,84.0,7.533754
1784073127794,0.8972201,0.4511721,0.36601308,9.45,19.81,-33.95,15,90.0,7.533754
1784073127794,0.56292814,1.6392505,-0.22497602,13.86,-16.66,-99.33,15,90.0,7.533754
1784073127839,0.065394334,3.1272159,-0.24815686,134.61,-7.28,-224.98,15,90.0,7.533754
1784073127839,-0.9862832,6.384244,-0.5753726,148.33,-83.93,-225.19,15,90.0,7.533754
1784073127839,-2.7953637,3.1423442,-0.76911545,99.05,-26.04,-109.340004,15,90.0,7.533754
1784073127839,-1.651451,1.3952419,-0.42701524,-134.33,-7.4900002,-18.62,15,90.0,7.533754
1784073127839,-0.76594335,1.4050022,0.6610196,-108.78,-0.35,15.82,15,90.0,7.533754
1784073127839,-0.37138125,1.6031373,-0.17178214,2.31,7.14,21.14,15,90.0,7.533754
1784073127839,-0.27036166,1.8242092,-0.43653157,6.44,5.81,9.31,15,90.0,7.533754
1784073127839,-0.10199564,1.8820393,-0.18032244,-0.28,-4.41,-9.94,15,90.0,7.533754
1784073127926,0.013908497,1.8742309,-0.22522004,13.86,-21.07,-24.43,15,90.0,7.533754
1784073127926,-0.014152505,1.9262047,-0.38162962,7.84,-43.89,-27.37,15,90.0,7.533754
1784073127926,-0.06100218,1.9413334,-0.3503965,-23.31,-66.29,-21.210001,15,90.0,7.533754
1784073127926,-0.15030937,1.8798431,-0.336488,-48.79,-81.9,-9.17,15,90.0,7.533754
1784073127926,-0.17422222,1.6451067,-0.27597386,-63.28,-85.68,3.92,15,90.0,7.533754
1784073127926,-0.28500217,1.4884531,-0.26718953,-55.37,-82.95,12.25,15,90.0,7.533754
1784073127926,-0.19130284,1.3859695,-0.3335599,-50.4,-70.98,19.88,15,90.0,7.533754
1784073127926,-0.16031373,1.2930022,-0.30720696,-44.73,-56.07,23.59,15,90.0,7.533754
1784073128017,-0.103947714,1.2229717,-0.2713377,-38.78,-44.45,24.36,15,90.0,7.533754
1784073128017,-0.022204792,1.0948671,-0.23156427,-31.64,-40.11,23.17,16,96.0,7.533754
1784073128017,0.079058826,1.0487494,-0.12737255,-27.72,-36.26,21.49,16,96.0,7.533754
1784073128017,0.13078867,0.91478866,-0.23034422,-21.35,-36.12,19.74,16,96.0,7.533754
1784073128017,0.16665795,0.8315817,-0.34649238,-27.58,-41.51,19.04,16,96.0,7.533754
1784073128017,0.19081481,0.68298036,-0.46947277,-28.210001,-47.53,19.74,16,96.0,7.533754
1784073128017,0.26108932,0.5900131,-0.45068407,-35.63,-58.66,22.33,16,96.0,7.533754
1784073128017,0.18813072,0.4384837,-0.33917212,-31.85,-66.99,25.9,16,96.0,7.533754
1784073128061,0.13591287,0.33209586,-0.22985621,-9.52,-71.89,30.45,16,96.0,7.533754
1784073128061,0.08418301,0.29866666,-0.14469717,18.41,-69.79,36.61,16,96.0,7.533754
1784073128061,0.06978649,0.27304575,-0.21741176,35.56,-65.45,41.02,16,96.0,7.533754
1784073128061,0.10248367,0.22204792,-0.37357733,27.93,-59.57,42.56,16,96.0,7.533754
1784073128061,0.23986056,0.033429194,-0.19447495,4.06,-54.25,37.8,16,96.0,7.533754
1784073128061,0.38260567,-0.06612636,-0.030745098,-16.94,-48.44,28.07,16,96.0,7.533754
1784073128061,0.43311545,-0.23644444,0.0729586,-12.67,-35.420002,13.72,16,96.0,7.533754
1784073128061,0.4055425,-0.2742658,-0.037333332,19.95,-18.27,-1.75,16,96.0,7.533754
1784073128153,0.34551635,-0.43018737,-0.1512854,33.95,4.41,-16.94,16,96.0,7.533754
1784073128153,0.24718083,-0.41945097,-0.009760349,31.99,25.48,-28.14,16,96.0,7.533754
1784073128153,0.5624401,-0.5229107,0.8623268,0.0,20.3,-35.49,16,96.0,7.533754
1784073128153,1.1546493,-0.3865098,2.2522004,-54.53,-18.48,-30.24,16,96.0,7.533754
1784073128153,1.5060217,-0.27914596,2.0567496,26.74,-62.37,-10.29,16,96.0,7.533754
1784073128153,-0.0024400873,-0.22546406,0.60904574,167.79,-77.07,-9.45,17,102.0,7.533754
1784073128153,-1.0467974,-0.502902,-0.47362092,198.1,-39.62,-32.06,17,102.0,7.533754
1784073128153,-1.0009238,0.14225708,-0.3181874,171.01,6.93,-33.25,18,108.0,7.533754
1784073128198,-0.811085,1.2646972,-0.40749454,64.05,37.24,13.72,18,108.0,7.533754
1784073128198,-0.645403,2.382257,-0.05783007,69.79,45.85,94.08,18,108.0,7.533754
1784073128198,-1.0802265,5.203242,-0.6988409,48.51,56.56,196.07,18,108.0,7.533754
1784073128198,0.699085,4.3065095,-0.6258823,108.85,100.52,188.86,18,108.0,7.533754
1784073128198,1.8930196,2.072366,-1.1077995,-39.83,59.29,107.66,18,108.0,7.533754
1784073128198,0.65565145,1.1012113,1.0228845,-114.03,58.8,52.5,18,108.0,7.533754
1784073128198,0.3472244,1.4477037,-0.09369934,8.47,81.48,27.79,18,108.0,7.533754
1784073128198,0.16446187,1.7449064,-0.48850545,-17.5,77.35,14.28,18,108.0,7.533754
1784073128244,-0.13932897,1.679512,-0.09394335,-62.09,61.95,9.24,18,108.0,7.533754
1784073128244,-0.3103791,1.6665796,-0.20960349,-46.13,57.19,12.18,18,108.0,7.533754
1784073128244,-0.4275033,1.7288018,-0.31452724,-33.670002,51.03,19.25,18,108.0,7.533754
1784073128244,-0.42213506,1.681708,-0.30964705,-34.44,49.84,22.61,18,108.0,7.533754
1784073128244,-0.42457515,1.6136296,-0.28793028,-33.74,51.66,18.55,18,108.0,7.533754
1784073128244,-0.37455335,1.511878,-0.24425273,-26.95,48.37,14.63,18,108.0,7.533754
1784073128244,-0.3216035,1.4689325,-0.20887147,-16.31,38.36,13.02,18,108.0,7.533754
1784073128244,-0.26718953,1.4708846,-0.24230066,-11.62,27.93,10.57,18,108.0,7.533754
1784073128326,-0.25352505,1.373525,-0.1903268,-17.710001,19.53,7.07,18,108.0,7.533754
1784073128326,-0.22522004,1.2944663,-0.17031808,-20.02,21.7,6.44,18,108.0,7.533754
1784073128326,-0.23132028,1.2180915,-0.17837037,-22.4,14.28,3.78,18,108.0,7.533754
1784073128326,-0.22253595,1.1551372,-0.14908932,-27.16,10.85,0.28,19,114.0,7.533754
1784073128326,-0.15982571,1.1285403,-0.2186318,-31.78,6.7200003,-4.48,19,114.0,7.533754
1784073128326,-0.1654379,1.0504576,-0.28793028,-34.72,-2.59,-9.24,19,114.0,7.533754
1784073128326,-0.13688889,0.96651846,-0.30354682,-34.51,-3.78,-13.51,19,114.0,7.533754
1784073128326,-0.13615687,0.8664749,-0.37113726,-30.52,2.38,-17.57,19,114.0,7.533754
1784073128643,-0.105655774,0.71640956,-0.41749892,-34.93,-0.77,-20.3,19,114.0,7.533754
1784073128643,-0.076862745,0.57268846,-0.37601742,-40.11,-7.0,-20.3,19,114.0,7.533754
1784073128643,0.08076689,0.35966885,-0.23351634,-34.16,-8.96,-18.41,19,114.0,7.533754
1784073128643,0.094187364,0.43287146,-0.2906144,-42.63,-11.55,-18.27,19,114.0,7.533754
1784073128643,0.1037037,0.29329848,-0.13200872,-52.29,-8.75,-17.710001,19,114.0,7.533754
1784073128643,0.13420479,0.14762528,0.14982136,-23.38,0.07,-16.03,19,114.0,7.533754
1784073128643,-0.027572986,0.27182573,0.10345969,-16.45,9.94,-10.92,19,114.0,7.533754
1784073128643,-0.13005665,0.16568191,0.23400435,-5.81,22.19,3.22,19,114.0,7.533754
1784073128956,-0.17129412,0.05734205,0.22790413,18.13,29.33,21.42,19,114.0,7.533754
1784073128956,-0.039529413,-0.14884531,0.16592592,52.57,33.95,38.08,19,114.0,7.533754
1784073128956,0.027572986,-0.108339876,-0.1515294,49.35,23.17,49.98,19,114.0,7.533754
1784073128956,0.14738126,-0.2659695,-0.14030501,25.41,6.93,58.94,19,114.0,7.533754
1784073128956,0.102239646,-0.4145708,0.08808714,1.82,-3.99,65.24,19,114.0,7.533754
1784073128956,0.043921567,-0.41505885,0.5526797,-3.08,-1.47,66.64,19,114.0,7.533754
1784073128956,-0.06417429,-0.36479303,1.4301351,9.1,25.76,60.13,19,114.0,7.533754
1784073128956,-0.40529847,-0.3865098,1.738806,71.75,82.11,43.96,19,114.0,7.533754
1784073129318,-0.502902,-0.57586056,0.97261876,151.76,125.65,42.98,19,114.0,7.533754
1784073129318,1.3420479,-0.18935075,-0.11297604,122.36,119.63,43.75,19,114.0,7.533754
1784073129318,1.7837038,0.10321569,-0.08808714,78.47,94.22,19.74,19,114.0,7.533754
1784073129318,1.5743443,1.9359651,-0.034893245,30.52,21.98,-73.92,19,114.0,7.533754
1784073129318,0.7549629,2.9805665,0.10199564,124.32,8.4,-248.15,19,114.0,7.533754
1784073129318,-1.0853508,3.6803834,-1.596549,128.66,-59.78,-328.51,19,114.0,7.533754
1784073129318,-2.0691938,4.780375,0.66150767,109.270004,-52.920002,-210.21,19,114.0,7.533754
1784073129318,-2.9683661,2.043085,-1.6092374,56.21,-4.2,-65.590004,19,114.0,7.533754
1784073129770,-1.1800262,1.1261002,0.5111983,-143.01,-12.39,2.8700001,19,114.0,7.533754
1784073129770,-0.5129063,1.5179782,0.41579086,-66.78,-10.57,16.8,19,114.0,7.533754
1784073129770,-0.1315207,1.8320174,-0.43433553,-13.02,0.35,11.2,19,114.0,7.533754
1784073129770,0.18593463,1.8664227,-0.22497602,-24.57,5.7400002,-10.92,19,114.0,7.533754
1784073129770,0.27621785,1.8149369,-0.08637909,-15.12,10.64,-34.3,19,114.0,7.533754
1784073129770,0.27011764,1.7429543,-0.14201307,-5.25,3.78,-44.94,19,114.0,7.533754
1784073129770,0.2552331,1.677316,-0.15177341,-15.47,-13.37,-46.2,19,114.0,7.533754
1784073129770,0.21594772,1.6743878,-0.21228758,-30.380001,-31.08,-39.34,19,114.0,7.533754
1784073129815,0.08223093,1.6170458,-0.22399999,-46.13,-38.15,-25.41,19,114.0,7.533754
1784073129815,-0.068810456,1.5013856,-0.2017952,-52.29,-35.77,-11.76,19,114.0,7.533754
1784073129815,-0.09174728,1.4220828,-0.24742483,-57.75,-28.91,-3.15,19,114.0,7.533754
1784073129815,-0.13054466,1.2825098,-0.18861873,-49.49,-19.95,0.28,19,114.0,7.533754
1784073129815,-0.105167754,1.1390327,-0.18300654,-40.25,-10.64,2.03,20,120.0,7.533754
1784073129815,-0.06100218,1.0424052,-0.12834857,-28.56,-7.14,3.15,20,120.0,7.533754
1784073129815,-0.043677557,0.978719,-0.16958606,-15.89,-2.45,5.39,20,120.0,7.533754
1784073129815,-0.03025708,0.9164967,-0.20350327,-13.65,-7.7,7.63,20,120.0,7.533754
1784073129862,0.030745098,0.74154246,-0.35527667,-34.09,-12.25,17.36,20,120.0,7.533754
1784073129862,-0.048801742,0.59855336,-0.4172549,-38.22,-16.73,20.16,20,120.0,7.533754
1784073129862,0.037089325,0.53096294,-0.3616209,-39.97,-20.23,22.19,20,120.0,7.533754
1784073129862,0.078570805,0.33624402,-0.18105447,-27.58,-24.22,24.64,20,120.0,7.533754
1784073129862,0.10126361,0.31257516,-0.13981698,-8.33,-27.3,25.76,20,120.0,7.533754
1784073129862,0.16372985,0.29012635,-0.099311545,7.98,-31.64,26.6,20,120.0,7.533754
1784073129862,0.2549891,0.3216035,-0.07661873,16.17,-34.3,25.9,20,120.0,7.533754
1784073129862,0.25303704,0.20691939,0.223756,8.61,-36.54,22.61,20,120.0,7.533754
1784073129904,0.020008715,-0.20618735,0.56024396,139.16,-77.21,7.07,20,120.0,7.533754
1784073129904,-1.2832419,-0.391878,-0.42530718,146.09,-55.3,-9.17,20,120.0,7.533754
1784073129904,-1.2215077,0.17641829,-0.1654379,118.65,-29.47,-7.35,20,120.0,7.533754
1784073129904,-0.924061,1.260305,-0.0951634,54.25,-4.27,38.57,20,120.0,7.533754
1784073129904,-0.6239303,2.5891764,-0.38382572,83.02,-3.99,118.020004,20,120.0,7.533754
1784073129904,-0.5241307,6.351791,-0.44824398,100.24,11.9,171.57,20,120.0,7.533754
1784073129904,1.1236601,3.6071806,-1.1229281,118.37,31.99,128.8,20,120.0,7.533754
1784073129904,1.6346145,1.7407582,-0.45044008,-93.17,1.89,66.85,20,120.0,7.533754
1784073129951,0.22522004,1.5313987,-0.25108495,36.54,30.24,8.12,20,120.0,7.533754
1784073129951,0.038797386,1.7646711,-0.4397037,-7.77,24.15,5.6,20,120.0,7.533754
1784073129951,-0.2405926,1.707573,-0.11273203,-46.27,10.5,8.4,20,120.0,7.533754
1784073129951,-0.35283658,1.7849237,-0.30964705,-33.670002,4.06,12.53,20,120.0,7.533754
1784073129951,-0.37748146,1.7227014,-0.23546842,-35.84,-1.61,19.95,20,120.0,7.533754
1784073129951,-0.35454467,1.6968367,-0.16153377,-29.26,1.47,22.47,20,120.0,7.533754
1784073129951,-0.2964706,1.7195294,-0.26108932,-23.31,7.7,15.33,20,120.0,7.533754
1784073129951,-0.23546842,1.5948409,-0.195695,-25.76,9.1,4.9,20,120.0,7.533754
1784073129998,-0.19764706,1.456976,-0.21106753,-32.41,1.6800001,-6.16,20,120.0,7.533754
1784073129998,-0.090039216,1.285438,-0.18617864,-39.2,2.1,-4.9,20,120.0,7.533754
1784073129998,-0.10687582,1.2273638,-0.19520697,-34.65,-1.54,-6.51,20,120.0,7.533754
1784073129998,-0.12810457,1.1695337,-0.22009587,-30.31,-1.54,-10.64,21,125.99999,7.533754
1784073129998,-0.12517647,1.1253681,-0.26938564,-25.62,-3.29,-15.26,21,125.99999,7.533754
1784073129998,-0.16080175,1.0311809,-0.2906144,-24.15,-0.91,-20.16,21,125.99999,7.533754
1784073129998,-0.18617864,0.9404096,-0.3503965,-18.62,2.1,-25.48,21,125.99999,7.533754
1784073129998,-0.17227016,0.81718516,-0.41823092,-9.59,9.03,-28.91,21,125.99999,7.533754
1784073130086,0.042457517,0.6005055,-0.5024139,-30.24,-4.41,-31.36,21,125.99999,7.533754
1784073130086,0.07710675,0.6312505,-0.42799127,-33.11,-7.14,-28.84,21,125.99999,7.533754
1784073130086,0.2832941,0.4785011,-0.2637734,-58.73,-22.05,-25.27,21,125.99999,7.533754
1784073130086,0.392122,0.24718083,0.038553376,-59.78,-21.35,-20.58,21,125.99999,7.533754
1784073130086,0.252305,0.5075381,-0.0978475,-51.03,-12.25,-14.35,21,125.99999,7.533754
1784073130086,0.18959478,0.29598257,0.15714161,-35.420002,5.88,-5.67,21,125.99999,7.533754
1784073130086,0.059782133,0.29549456,0.20374727,4.9,33.88,3.64,21,125.99999,7.533754
1784073130086,0.039041396,0.09174728,0.18300654,55.23,59.85,13.58,21,125.99999,7.533754
1784073130133,0.11102396,-0.0727146,-0.121272326,64.61,68.32,25.69,21,125.99999,7.533754
1784073130133,0.18910675,-0.3298998,-0.061734203,37.52,49.56,33.88,21,125.99999,7.533754
1784073130133,0.26548147,-0.41579086,-0.079058826,18.76,31.01,41.93,21,125.99999,7.533754
1784073130133,0.20765142,-0.44336385,0.2603573,5.7400002,20.02,47.39,21,125.99999,7.533754
1784073130133,-0.011956427,-0.4336035,1.092183,15.05,29.89,45.920002,21,125.99999,7.533754
1784073130133,-0.18520261,-0.34576035,1.6529149,49.63,67.48,33.6,21,125.99999,7.533754
1784073130133,-0.9072244,-0.34478432,1.5780044,112.63,123.48,22.12,21,125.99999,7.533754
1784073130133,0.54755557,-0.023668844,0.16470587,151.9,137.9,22.4,22,132.0,7.533754
1784073130179,1.3918257,0.48435733,0.009028322,25.97,78.75,-18.48,22,132.0,7.533754
1784073130179,0.8345098,1.7981001,-0.2832941,-1.96,18.2,-104.090004,22,132.0,7.533754
1784073130179,0.39309806,2.688976,-0.0019520697,103.46,7.21,-234.01,22,132.0,7.533754
1784073130179,-0.6363748,4.277961,-0.6910327,98.21,-46.9,-274.19,22,132.0,7.533754
1784073130179,-2.5513551,4.115695,-0.05294989,133.49,-22.54,-157.15,22,132.0,7.533754
1784073130179,-2.3300393,1.8256732,-1.5850806,9.8,26.74,-44.73,22,132.0,7.533754
1784073130179,-0.867207,1.2083311,0.6612636,-166.04,23.1,6.65,22,132.0,7.533754
1784073130179,-0.27890193,1.5967929,0.43238342,-38.43,32.13,13.51,22,132.0,7.533754
1784073130265,0.04953377,1.8881395,-0.20228322,-19.32,40.88,-23.38,22,132.0,7.533754
1784073130265,0.13371678,1.8715469,-0.09735948,-12.39,36.4,-42.77,22,132.0,7.533754
1784073130265,0.13078867,1.8669107,-0.20496733,-6.09,23.1,-46.2,22,132.0,7.533754
1784073130265,0.09735948,1.8544663,-0.25059694,-21.77,2.03,-38.29,22,132.0,7.533754
1784073130265,0.034893245,1.8132287,-0.22644009,-42.84,-15.33,-24.43,22,132.0,7.533754
1784073130265,-0.06832244,1.6848803,-0.252305,-61.18,-23.73,-8.89,22,132.0,7.533754
1784073130265,-0.17056209,1.453316,-0.21692374,-63.07,-21.7,0.28,22,132.0,7.533754
1784073130265,-0.18715468,1.3825533,-0.2713377,-50.82,-14.91,2.94,22,132.0,7.533754
1784073130355,-0.22155991,1.2022309,-0.23132028,-21.56,-1.82,3.92,22,132.0,7.533754
1784073130355,-0.20789543,1.0785185,-0.16885403,-10.57,-0.98,5.18,23,138.0,7.533754
1784073130355,-0.19740304,1.0028758,-0.22326796,-2.94,-5.32,7.14,23,138.0,7.533754
1784073130355,-0.17153813,0.93796945,-0.2710937,-9.7300005,-10.92,11.2,23,138.0,7.533754
1784073130355,-0.103947714,0.8999041,-0.24181265,-24.78,-17.15,17.36,23,138.0,7.533754
1784073130355,-0.044653594,0.7598431,-0.35210457,-35.0,-28.42,23.1,23,138.0,7.533754
1784073130355,-0.02293682,0.6466231,-0.4623965,-47.46,-39.34,28.07,23,138.0,7.533754
1784073130355,-0.016592592,0.5348671,-0.4031024,-54.18,-48.44,32.06,23,138.0,7.533754
1784073130402,0.07320262,0.27206972,-0.08027887,-16.17,-56.98,35.56,23,138.0,7.533754
1784073130402,0.117124185,0.22522004,-0.09491939,12.39,-58.73,34.65,23,138.0,7.533754
1784073130402,0.13664488,0.2576732,-0.124688454,23.31,-58.45,33.6,23,138.0,7.533754
1784073130402,0.1593377,0.13762091,0.010248366,18.97,-61.53,32.41,23,138.0,7.533754
1784073130402,0.24230066,0.06466231,0.03196514,-24.85,-56.0,26.39,23,138.0,7.533754
1784073130402,0.30354682,-0.15640959,0.26938564,-19.39,-40.25,14.91,23,138.0,7.533754
1784073130402,0.32648364,-0.16446187,0.18569063,8.54,-31.22,0.7,23,138.0,7.533754
1784073130402,0.26133332,-0.2996427,0.078570805,32.62,-21.210001,-12.6,23,138.0,7.533754
1784073130446,0.0756427,-0.30574292,0.02293682,27.02,9.03,-32.34,23,138.0,7.533754
1784073130446,0.07442266,-0.38040957,-0.14347713,43.96,23.03,-38.22,23,138.0,7.533754
1784073130446,0.5170545,-0.53291506,0.4035904,-17.5,17.57,-36.68,23,138.0,7.533754
1784073130446,1.0433812,-0.44092375,2.2800174,-85.05,-25.06,-26.67,23,138.0,7.533754
1784073130446,1.7563746,-0.12005229,2.8495336,42.07,-83.37,-2.73,23,138.0,7.533754
1784073130446,0.58147275,0.21887583,1.089011,223.44,-104.44,7.98,23,138.0,7.533754
1784073130446,-1.4379433,-0.2293682,-0.13542484,190.68001,-82.32,-9.8,23,138.0,7.533754
1784073130446,-2.2177951,0.84622216,0.10492375,122.01,-69.44,9.31,23,138.0,7.533754
1784073130492,-1.3130109,4.666423,-1.0548496,87.71,-15.96,265.79,23,138.0,7.533754
1784073130492,0.30452287,3.3680525,-0.61905015,36.96,15.47,271.95,23,138.0,7.533754
1784073130492,2.5347624,2.466928,-0.2549891,68.39,-21.49,125.23,23,138.0,7.533754
1784073130492,1.4918693,1.8000523,-0.5924532,-41.37,-26.04,25.9,23,138.0,7.533754
1784073130492,0.44043574,1.1800262,0.4875294,-42.14,-1.82,-9.03,23,138.0,7.533754
1784073130492,0.19935511,1.4696645,-0.31281918,-7.42,17.01,-23.66,23,138.0,7.533754
1784073130492,0.031233115,1.8107886,-0.5021699,-54.18,9.45,-25.83,23,138.0,7.533754
1784073130492,-0.16738997,1.8639826,-0.121272326,-72.03,-0.7,-17.85,23,138.0,7.533754
1784073130626,-0.2967146,1.7061088,-0.20691939,-24.78,-9.8,20.58,23,138.0,7.533754
1784073130626,-0.23205228,1.7517387,-0.23498039,-15.190001,-2.94,30.24,23,138.0,7.533754
1784073130626,-0.16763398,1.7424662,-0.29769063,-20.09,5.53,27.72,23,138.0,7.533754
1784073130626,-0.08589107,1.5850806,-0.18520261,-22.68,8.33,21.7,23,138.0,7.533754
1784073130626,-0.050021786,1.4865011,-0.17837037,-20.37,16.73,17.36,23,138.0,7.533754
1784073130626,-0.0026840959,1.4032942,-0.24596079,-26.04,17.08,12.81,23,138.0,7.533754
1784073130626,-0.016104575,1.2405403,-0.25084096,-39.83,14.63,9.94,23,138.0,7.533754
1784073130626,0.04684967,1.1280522,-0.2213159,-43.05,11.06,5.6,24,144.0,7.533754
1784073130671,-0.050265793,1.06461,-0.28061002,-47.25,12.6,-7.14,24,144.0,7.533754
1784073130671,-0.10126361,0.99433553,-0.2571852,-49.84,12.95,-15.33,24,144.0,7.533754
1784073130671,-0.013908497,0.867695,-0.37479737,-36.12,22.89,-19.81,24,144.0,7.533754
1784073130671,-0.06856645,0.8101089,-0.5453595,-28.91,19.39,-24.85,24,144.0,7.533754
1784073130671,-0.02293682,0.6629717,-0.55609584,-37.1,14.42,-26.74,24,144.0,7.533754
1784073130671,-0.04001743,0.5575599,-0.46874073,-47.88,8.26,-25.76,24,144.0,7.533754
1784073130671,0.09321132,0.2830501,-0.2074074,-54.81,-1.12,-26.11,24,144.0,7.533754
1784073130671,0.034893245,0.45263618,-0.18251853,-48.23,-1.33,-24.99,24,144.0,7.533754
1784073130717,-0.06100218,0.41652286,0.16324182,1.19,13.79,-19.32,24,144.0,7.533754
1784073130717,-0.13420479,0.17715032,0.3384401,7.63,27.3,-14.28,24,144.0,7.533754
1784073130717,-0.16641395,0.11980827,0.3604009,33.04,42.77,-5.6,24,144.0,7.533754
1784073130717,-0.13444881,0.043189544,0.20228322,64.61,51.03,4.48,24,144.0,7.533754
1784073130717,-0.075886704,-0.01903268,-0.03562527,70.98,43.19,14.56,24,144.0,7.533754
1784073130717,0.114928104,-0.17690632,-0.13054466,49.91,27.72,24.01,24,144.0,7.533754
1784073130717,0.21497166,-0.3133072,-0.13176471,33.6,12.74,34.44,24,144.0,7.533754
1784073130717,0.19959912,-0.33258387,-0.1007756,17.43,-2.8700001,39.83,24,144.0,7.533754
1784073130761,0.012444444,-0.39749017,1.2463965,18.06,19.67,33.81,24,144.0,7.533754
1784073130761,-0.12981263,-0.35478866,1.8525141,66.22,63.7,20.86,24,144.0,7.533754
1784073130761,-0.44311982,-0.33624402,1.5970371,140.84,118.37,4.34,24,144.0,7.533754
1784073130761,0.6353987,-0.0070762527,-2.4400871E-4,177.38,131.11,-0.63,25,150.0,7.533754
1784073130761,2.1558168,-0.14128104,-0.21423966,54.32,125.79,-8.26,25,150.0,7.533754
1784073130761,2.4347188,1.8442179,0.4560523,27.72,77.7,-71.47,25,150.0,7.533754
1784073130761,1.2622571,2.464,-0.76081914,105.91,13.3,-224.42,25,150.0,7.533754
1784073130761,-0.41164273,2.606013,-1.5638518,66.92,-27.23,-309.75,25,150.0,7.533754
1784073130853,-3.5971766,3.4253943,-1.5533594,136.5,41.02,-75.81,25,150.0,7.533754
1784073130853,-1.1270763,1.4911373,-0.43555555,-137.55,4.76,15.12,25,150.0,7.533754
1784073130853,-0.5731765,1.1900305,0.77716774,-115.29,27.16,30.03,25,150.0,7.533754
1784073130853,-0.26548147,1.679512,-0.43872768,-11.97,57.82,22.75,25,150.0,7.533754
1784073130853,-0.043921567,1.8608105,-0.26401743,-8.54,63.28,3.29,25,150.0,7.533754
1784073130853,0.049045753,1.8710588,-0.06466231,2.52,62.16,-23.59,25,150.0,7.533754
1784073130853,0.029281046,1.929377,-0.16226579,18.13,51.8,-39.27,25,150.0,7.533754
1784073130853,-0.0046361657,1.9083921,-0.26450545,3.01,30.45,-38.920002,25,150.0,7.533754
1784073130899,-0.15738562,1.7697952,-0.27450982,-56.77,-17.29,-18.2,25,150.0,7.533754
1784073130899,-0.24400872,1.5484792,-0.23839653,-69.72,-29.26,-8.4,25,150.0,7.533754
1784073130899,-0.23351634,1.4669805,-0.26133332,-65.17,-23.1,0.28,25,150.0,7.533754
1784073130899,-0.23083223,1.3103268,-0.27816993,-55.86,-14.84,4.9,25,150.0,7.533754
1784073130899,-0.18349455,1.1578214,-0.27597386,-45.15,-6.86,6.44,25,150.0,7.533754
1784073130899,-0.15348148,1.0636339,-0.24547276,-25.76,-3.43,8.19,26,156.0,7.533754
1784073130899,-0.14079303,0.97237474,-0.22522004,-9.66,-2.45,12.67,26,156.0,7.533754
1784073130899,-0.116636164,0.9262571,-0.2681656,-5.46,-16.17,16.17,26,156.0,7.533754
1784073130948,-0.09272331,0.62539434,-0.35234857,-33.95,-24.57,30.45,26,156.0,7.533754
1784073130948,-0.027816994,0.51412636,-0.3384401,-47.11,-24.99,34.51,26,156.0,7.533754
1784073130948,0.07027451,0.42384312,-0.28158605,-42.0,-29.12,35.91,26,156.0,7.533754
1784073130948,0.056122,0.24327669,-0.09711547,-30.73,-33.18,36.75,26,156.0,7.533754
1784073130948,0.15494554,0.21399564,-0.073446624,-15.54,-35.14,36.4,26,156.0,7.533754
1784073130948,0.20838344,0.27865794,-0.057098042,-6.51,-36.12,34.23,26,156.0,7.533754
1784073130948,0.24791284,0.19423094,0.0756427,-10.78,-34.37,27.93,26,156.0,7.533754
1784073130948,0.3211155,0.1593377,0.19447495,-21.56,-29.47,16.59,26,156.0,7.533754
1784073131029,0.3113551,0.044897605,0.14225708,11.13,-15.47,-10.22,26,156.0,7.533754
1784073131029,0.27084967,-0.36308497,0.18569063,26.11,-7.35,-18.48,26,156.0,7.533754
1784073131029,0.1037037,-0.12298039,-0.027328975,32.97,1.4,-23.38,26,156.0,7.533754
1784073131029,-7.320261E-4,-0.25059694,-0.02269281,41.79,10.5,-24.57,26,156.0,7.533754
1784073131029,-0.042701527,-0.40944663,-0.1371329,51.94,21.14,-26.11,26,156.0,7.533754
1784073131029,0.19423094,-0.58781695,-0.029037038,15.82,29.54,-25.62,26,156.0,7.533754
1784073131029,0.5024139,-0.59440523,0.5983094,-23.31,9.8,-20.86,26,156.0,7.533754
1784073131029,1.0302048,-0.30037472,2.5869803,-33.74,-35.77,-8.12,26,156.0,7.533754
1784073131075,-0.2691416,0.12786056,0.1991111,220.85,-98.0,27.44,27,162.0,7.533754
1784073131075,-1.6951286,-0.20399128,-0.31184313,154.63,-72.1,8.96,27,162.0,7.533754
1784073131075,-1.9535336,0.6095337,-0.29329848,123.97,-47.81,21.56,27,162.0,7.533754
1784073131075,-1.7065971,2.1999826,-1.2271198,76.72,-2.1,109.06,27,162.0,7.533754
1784073131075,-1.4469717,4.4385185,-0.673708,17.64,6.44,218.4,27,162.0,7.533754
1784073131075,0.66199565,5.0653768,0.07198257,142.24,72.94,205.59,27,162.0,7.533754
1784073131075,2.628706,2.6140654,-1.8600785,67.13,15.75,88.55,27,162.0,7.533754
1784073131075,1.0289848,1.2463965,0.117124185,-167.72,-20.79,33.32,27,162.0,7.533754
1784073131121,0.24108061,1.5326188,-0.4501961,23.94,18.13,6.79,27,162.0,7.533754
1784073131121,-0.04953377,1.8349456,-0.68810457,-35.21,2.8700001,1.82,27,162.0,7.533754
1784073131121,-0.20130719,1.8817952,-0.008296296,-78.75,-14.21,5.6,27,162.0,7.533754
1784073131121,-0.40529847,1.8410457,-0.19642702,-30.24,-20.72,13.58,27,162.0,7.533754
1784073131121,-0.5170545,1.8534901,-0.42091504,-21.210001,-19.25,21.84,27,162.0,7.533754
1784073131121,-0.4311634,1.7671112,-0.252793,-28.0,-12.04,19.95,27,162.0,7.533754
1784073131121,-0.3787015,1.6182657,-0.28671023,-21.49,-3.78,7.91,27,162.0,7.533754
1784073131121,-0.24522875,1.5487233,-0.25084096,-19.81,-2.66,-2.8,27,162.0,7.533754
1784073131168,-0.16470587,1.369865,-0.32697168,-23.24,0.98,-8.19,27,162.0,7.533754
1784073131168,-0.030745098,1.2456645,-0.2876863,-32.27,-0.98,-8.75,27,162.0,7.533754
1784073131168,-0.0729586,1.1831982,-0.2852462,-30.03,-2.8,-12.46,27,162.0,7.533754
1784073131168,-0.011956427,1.1034074,-0.24864487,-26.11,4.97,-17.99,28,168.0,7.533754
1784073131168,0.013908497,0.979207,-0.31989545,-18.41,11.97,-24.85,28,168.0,7.533754
1784073131168,0.029037038,0.91844887,-0.39334205,-9.17,16.94,-32.13,28,168.0,7.533754
1784073131168,0.015372549,0.8274335,-0.40725055,-8.96,21.56,-38.15,28,168.0,7.533754
1784073131168,0.16909803,0.6751721,-0.3840697,-24.29,14.77,-41.02,28,168.0,7.533754
1784073131211,0.25425708,0.52217865,-0.22595207,-47.04,-5.18,-39.9,28,168.0,7.533754
1784073131211,0.28451416,0.21497166,0.110779956,-49.28,-10.92,-36.4,28,168.0,7.533754
1784073131211,0.13005665,0.3108671,0.02269281,-44.45,-7.14,-29.19,28,168.0,7.533754
1784073131211,-0.0039041394,0.22961222,0.10711983,-36.68,5.67,-19.32,28,168.0,7.533754
1784073131211,-0.1737342,0.18739869,0.24937691,-3.71,24.92,-7.42,28,168.0,7.533754
1784073131211,-0.14396514,-0.1651939,0.4924096,33.46,43.19,5.04,28,168.0,7.533754
1784073131211,-0.096383445,-0.2269281,0.32575163,68.95,57.61,18.13,28,168.0,7.533754
1784073131211,-0.0073202616,-0.2627974,0.06954248,87.36,59.36,30.66,28,168.0,7.533754
1784073131257,0.3164793,-0.5219347,-0.040505446,49.84,24.15,49.7,28,168.0,7.533754
1784073131257,0.23912853,-0.5665882,-0.06783442,27.09,15.47,52.85,28,168.0,7.533754
1784073131257,0.07539869,-0.5233987,-0.09735948,18.06,15.89,51.31,28,168.0,7.533754
1784073131257,0.0048801745,-0.4538562,0.059050106,8.47,17.01,47.25,28,168.0,7.533754
1784073131257,-0.006832244,-0.2881743,1.0182483,-7.7,37.52,40.6,28,168.0,7.533754
1784073131257,-0.1515294,-0.20765142,2.2441483,50.96,91.7,20.58,28,168.0,7.533754
1784073131257,-1.3640087,-0.21497166,2.1238518,176.12,168.07,-10.22,28,168.0,7.533754
1784073131257,1.037281,0.43775165,-0.6078257,209.02,168.84,-27.09,28,168.0,7.533754
1784073131303,2.9303007,3.2306752,0.64637905,47.670002,94.29,-158.83,28,168.0,7.533754
1784073131303,0.56390417,2.5686798,-1.5555556,158.27,20.23,-319.62,28,168.0,7.533754
1784073131303,-1.3635207,3.5039651,-1.0751023,-20.44,-30.24,-348.81,28,168.0,7.533754
1784073131303,-2.9788582,6.407425,1.453316,80.71,26.18,-194.81,28,168.0,7.533754
1784073131303,-2.9451852,1.7851677,-1.9108322,48.44,50.54,-39.41,28,168.0,7.533754
1784073131303,-1.1273203,1.2729934,-0.037089325,-158.06,-6.79,27.09,28,168.0,7.533754
1784073131303,-0.68054026,1.3325316,0.5348671,-88.2,13.58,39.13,28,168.0,7.533754
1784073131303,-0.23400435,1.6585273,-0.71811765,1.47,49.98,27.3,28,168.0,7.533754
1784073131348,0.20765142,1.8961917,0.28500217,-57.12,52.71,-36.4,28,168.0,7.533754
1784073131348,0.07710675,1.9413334,-0.24864487,17.710001,45.22,-55.09,28,168.0,7.533754
1784073131348,-0.004148148,1.9998953,-0.3694292,11.76,15.12,-54.04,28,168.0,7.533754
1784073131348,-0.13957298,2.0111198,-0.3162353,-13.72,-10.71,-40.18,28,168.0,7.533754
1784073131348,-0.20496733,1.8271374,-0.35722876,-42.07,-25.76,-17.85,28,168.0,7.533754
1784073131348,-0.19276689,1.6414467,-0.31062308,-57.05,-38.57,2.17,28,168.0,7.533754
1784073131348,-0.22644009,1.4506319,-0.33746406,-52.22,-35.56,14.9800005,28,168.0,7.533754
1784073131348,-0.21155554,1.3017865,-0.3560087,-48.58,-24.01,20.37,28,168.0,7.533754
1784073131393,-0.1878867,1.0419172,-0.17885838,-25.48,-6.51,26.39,29,174.0,7.533754
1784073131393,-0.16202179,1.0114161,-0.08247495,-13.72,-5.11,29.75,29,174.0,7.533754
1784073131393,-0.13884096,0.91722876,-0.18422659,-10.43,-15.89,31.57,29,174.0,7.533754
1784073131393,-0.11834422,0.8328017,-0.35820478,-22.82,-26.04,34.09,29,174.0,7.533754
1784073131393,-0.08223093,0.66760784,-0.36503705,-35.28,-37.94,34.23,29,174.0,7.533754
1784073131393,-0.016104575,0.5519477,-0.37113726,-36.82,-45.71,34.23,29,174.0,7.533754
1784073131393,-0.0031721133,0.3616209,-0.07979085,-33.74,-52.5,32.55,29,174.0,7.533754
1784073131393,0.032453157,0.35966885,0.06929847,3.78,-61.81,31.57,29,174.0,7.533754
1784073131483,0.08174292,0.36259696,-0.09394335,25.41,-67.13,32.62,29,174.0,7.533754
1784073131483,0.06685839,0.061246186,-0.06295425,3.85,-59.010002,31.85,29,174.0,7.533754
1784073131483,0.14689325,-0.20887147,0.088331155,-17.78,-45.78,24.78,29,174.0,7.533754
1784073131483,0.3281917,-0.30037472,0.23717648,-2.73,-42.91,10.5,29,174.0,7.533754
1784073131483,0.43531156,-0.41871896,0.391634,13.440001,-41.58,-5.88,29,174.0,7.533754
1784073131483,0.36357298,-0.30574292,0.3135512,40.04,-36.82,-17.78,29,174.0,7.533754
1784073131483,0.19764706,-0.5119303,0.14347713,59.43,-28.7,-27.72,29,174.0,7.533754
1784073131483,-0.0924793,-0.6005055,-0.06783442,54.6,-12.67,-35.21,29,174.0,7.533754
1784073131529,-0.024400871,-0.7940043,-0.19618301,23.24,6.37,-40.88,29,174.0,7.533754
1784073131529,0.18715468,-0.8923399,-0.2437647,-8.47,22.33,-40.6,29,174.0,7.533754
1784073131529,0.40651852,-0.69298476,-0.011712418,-62.16,14.91,-34.02,29,174.0,7.533754
1784073131529,0.6661438,-0.1988671,1.235416,-43.12,-26.11,-24.01,29,174.0,7.533754
1784073131529,1.5011415,0.15348148,3.4017255,44.52,-82.25,-5.81,29,174.0,7.533754
1784073131529,1.8307973,0.37748146,2.4003139,214.48,-119.42,29.26,29,174.0,7.533754
1784073131529,-1.6446187,0.07539869,-0.47313288,227.85,-85.12,17.92,29,174.0,7.533754
1784073131529,-2.5325663,0.757403,-0.20301525,103.25,-78.33,13.09,29,174.0,7.533754
1784073131574,-3.7957997,3.502989,-0.8584227,33.74,-29.61,130.27,29,174.0,7.533754
1784073131574,-1.3086188,5.0668406,-1.8061525,90.51,-7.07,291.62,29,174.0,7.533754
1784073131574,0.63661873,4.2079306,-0.38284966,45.85,37.31,279.65,29,174.0,7.533754
1784073131574,3.4236863,2.8624663,-1.2278519,15.68,-17.64,115.71,29,174.0,7.533754
1784073131574,1.5640959,1.2307799,-0.033673204,-108.29,-39.62,40.04,29,174.0,7.533754
1784073131574,0.63442266,0.73105013,0.80083656,-72.31,-15.89,16.87,29,174.0,7.533754
1784073131574,0.3662571,1.369865,-0.3281917,-3.15,5.53,-1.12,29,174.0,7.533754
1784073131574,0.010004357,1.823233,-0.69127667,-49.21,-7.21,-14.56,29,174.0,7.533754
1784073131793,-0.23790848,1.7505186,-0.18056644,-101.57,-25.9,-9.03,29,174.0,7.533754
1784073131793,-0.47703704,1.7888279,-0.051729847,-57.61,-35.28,6.79,29,174.0,7.533754
1784073131793,-0.56927234,1.9537778,-0.36576906,-25.06,-35.84,21.35,29,174.0,7.533754
1784073131793,-0.44824398,1.9537778,-0.35210457,-36.47,-27.86,24.99,29,174.0,7.533754
1784073131793,-0.3669891,1.7705272,-0.30720696,-50.19,-19.6,17.57,29,174.0,7.533754
1784073131793,-0.25084096,1.565316,-0.23132028,-48.02,-15.33,10.5,29,174.0,7.533754
1784073131793,-0.17568627,1.5033376,-0.23717648,-37.52,-12.39,6.16,29,174.0,7.533754
1784073131793,-0.044653594,1.4152505,-0.32623965,-34.44,-12.53,3.64,29,174.0,7.533754
1784073131929,0.052461874,1.289342,-0.39285403,-44.59,-15.61,1.47,29,174.0,7.533754
1784073131929,0.110779956,1.1670936,-0.23132028,-57.4,-19.460001,-1.12,30,180.0,7.533754
1784073131929,0.0644183,1.0738823,-0.18813072,-57.54,-11.83,-5.67,30,180.0,7.533754
1784073131929,0.041237473,0.9945795,-0.2710937,-43.33,-3.78,-11.97,30,180.0,7.533754
1784073131929,0.103947714,0.95529413,-0.3474684,-31.85,1.33,-20.72,30,180.0,7.533754
1784073131929,0.08052288,0.8066928,-0.4621525,-29.89,5.39,-29.68,30,180.0,7.533754
1784073131929,0.108095855,0.6563834,-0.48289326,-36.12,3.22,-35.07,30,180.0,7.533754
1784073131929,0.04660566,0.5487756,-0.3613769,-41.23,-1.61,-37.59,30,180.0,7.533754
1784073132020,0.05343791,0.40676254,-0.21375164,-51.59,-11.83,-38.22,30,180.0,7.533754
1784073132020,0.06295425,0.3252636,-0.076374725,-35.35,-13.93,-36.82,30,180.0,7.533754
1784073132020,0.056122,0.17983443,-0.023180827,-40.6,-13.93,-32.13,30,180.0,7.533754
1784073132020,-0.11322004,0.12102832,0.16104576,-17.08,-3.3600001,-25.69,30,180.0,7.533754
1784073132020,-0.2017952,-0.26230937,0.5177865,2.66,9.1,-15.26,30,180.0,7.533754
1784073132020,-0.29256645,-0.1371329,0.50192595,55.09,23.94,-1.96,30,180.0,7.533754
1784073132020,-0.15982571,-0.2549891,0.4560523,93.24,29.26,13.93,30,180.0,7.533754
1784073132020,-0.044897605,-0.28793028,0.2632854,101.71,27.37,29.19,30,180.0,7.533754
1784073132066,-0.012200436,-0.30647492,0.04782571,83.72,15.47,38.57,30,180.0,7.533754
1784073132066,0.26548147,-0.4955817,-0.024888888,56.7,4.62,44.38,30,180.0,7.533754
1784073132066,0.41188672,-0.5551198,-0.16690196,25.62,-0.63,47.95,30,180.0,7.533754
1784073132066,0.33990413,-0.49070153,-0.051729847,-7.35,-2.52,45.920002,30,180.0,7.533754
1784073132066,0.2742658,-0.3894379,0.40163833,-20.51,11.2,39.9,30,180.0,7.533754
1784073132066,0.24254465,-0.2293682,1.5728801,6.09,41.79,27.23,30,180.0,7.533754
1784073132066,0.01903268,-0.19862309,2.3119826,98.98,96.32,-1.47,30,180.0,7.533754
1784073132066,-0.68420047,-0.19398694,1.7346579,238.84,147.91,-27.16,30,180.0,7.533754
1784073132112,2.1211677,0.35234857,-1.284462,194.88,144.76,-32.83,30,180.0,7.533754
1784073132112,2.9539695,0.6558954,-0.2884183,-23.66,125.93,-51.66,30,180.0,7.533754
1784073132112,1.6451067,3.024488,0.22351198,41.93,66.15,-165.76,30,180.0,7.533754
1784073132112,0.42774728,1.9464575,-1.648279,134.96,3.99,-269.5,30,180.0,7.533754
1784073132112,-1.2461525,3.193342,-0.45214814,-54.11,-3.43,-275.03,30,180.0,7.533754
1784073132112,-3.0332723,5.5785275,0.72690195,107.590004,41.37,-164.64,30,180.0,7.533754
1784073132112,-2.288802,2.458876,-1.9269369,59.71,47.18,-37.66,30,180.0,7.533754
1784073132112,-0.8376819,1.176854,0.21179956,-183.19,3.22,24.5,30,180.0,7.533754
1784073132157,-0.47752503,1.207355,0.5551198,-83.16,46.34,27.3,30,180.0,7.533754
1784073132157,-0.1595817,1.7546666,-0.65784746,31.43,87.99,6.09,30,180.0,7.533754
1784073132157,0.051973857,2.0335686,-0.09296732,5.46,88.06,-25.2,30,180.0,7.533754
1784073132157,0.17202614,2.0940826,-0.103947714,35.91,78.68,-52.01,30,180.0,7.533754
1784073132157,0.13493682,2.2639127,-0.41530284,35.35,57.96,-59.99,30,180.0,7.533754
1784073132157,-0.04733769,2.2448802,-0.364061,4.34,27.86,-49.7,30,180.0,7.533754
1784073132157,-0.25864923,2.0640697,-0.4226231,-35.14,0.28,-28.84,30,180.0,7.533754
1784073132157,-0.30671895,1.8366536,-0.34258825,-62.58,-14.21,-10.5,30,180.0,7.533754
1784073132202,-0.36552507,1.5462832,-0.41627887,-57.96,-19.53,6.65,30,180.0,7.533754
1784073132202,-0.32770368,1.4584401,-0.4562963,-51.8,-22.4,7.91,30,180.0,7.533754
1784073132202,-0.32697168,1.3144749,-0.4226231,-39.62,-17.43,9.7300005,30,180.0,7.533754
1784073132202,-0.3579608,1.1602614,-0.26718953,-23.73,-11.76,12.88,30,180.0,7.533754
1784073132202,-0.27011764,1.1014553,-0.23351634,-10.64,-10.08,18.06,31,186.0,7.533754
1784073132202,-0.18935075,1.005804,-0.23327233,-9.38,-15.54,23.52,31,186.0,7.533754
1784073132202,-0.09906754,0.9182047,-0.33453596,-18.41,-19.39,27.86,31,186.0,7.533754
1784073132202,0.004148148,0.7378824,-0.24278867,-31.710001,-28.84,32.41,31,186.0,7.533754
1784073132247,0.0148845315,0.42921135,-0.28109804,-34.02,-54.46,41.3,31,186.0,7.533754
1784073132247,0.086623095,0.4109107,-0.06417429,-35.420002,-60.9,44.52,31,186.0,7.533754
1784073132247,0.02830501,0.24083659,0.20862745,-14.84,-66.85,45.99,31,186.0,7.533754
1784073132247,-0.024888888,0.23571241,0.08369499,12.11,-70.42,43.26,31,186.0,7.533754
1784073132247,0.032453157,0.26230937,-0.09028322,3.99,-65.17,40.04,31,186.0,7.533754
1784073132247,0.14445315,0.106387794,0.021716775,-22.47,-55.3,32.13,31,186.0,7.533754
1784073132247,0.32038346,-0.111999996,0.22570805,-40.18,-47.53,17.64,31,186.0,7.533754
1784073132247,0.41652286,-0.505586,0.59025705,-27.09,-39.76,-1.4,31,186.0,7.533754
1784073132335,0.3501525,-0.4062745,0.3308758,21.42,-41.51,-30.24,31,186.0,7.533754
1784073132335,0.081498906,-0.46678868,-0.009272331,90.86,-31.99,-36.47,31,186.0,7.533754
1784073132335,0.05929412,-0.72446185,-0.20033115,69.16,-8.96,-39.76,31,186.0,7.533754
1784073132335,0.04343355,-0.8071808,-0.115904145,27.3,5.25,-42.28,31,186.0,7.533754
1784073132335,0.31501526,-0.866719,0.12932462,-28.84,-0.14,-42.35,31,186.0,7.533754
1784073132335,0.8625708,-0.29817864,1.6211939,-74.340004,-45.36,-36.61,31,186.0,7.533754
1784073132335,1.5287147,0.0039041394,3.048889,32.34,-94.08,-15.82,31,186.0,7.533754
1784073132335,0.9745708,0.20960349,1.2988584,234.22,-109.48,6.37,31,186.0,7.533754
1784073132381,-1.6009412,0.1651939,-0.93992156,226.94,-59.64,-3.64,31,186.0,7.533754
1784073132381,-1.6099695,0.7347102,-0.12102832,103.18,-45.36,0.56,31,186.0,7.533754
1784073132381,-1.7117212,2.0801742,-1.3764532,71.68,-20.37,78.26,31,186.0,7.533754
1784073132381,-1.9857429,4.7427974,-0.21399564,8.54,3.71,211.68001,31,186.0,7.533754
1784073132381,-0.06393028,4.7498736,-0.65613943,119.28,47.81,261.87,31,186.0,7.533754
1784073132381,2.268305,2.6970282,-0.87574726,110.67,-6.37,160.44,31,186.0,7.533754
1784073132381,1.3220392,1.7866317,-0.5338911,-70.7,-24.57,75.11,31,186.0,7.533754
1784073132381,0.307939,1.0560697,0.5990414,-76.090004,-13.02,40.81,31,186.0,7.533754
1784073132427,0.16714597,1.3793812,-0.14445315,-6.23,2.66,30.380001,31,186.0,7.533754
1784073132427,0.09711547,1.8159128,-0.7249499,-45.08,-4.13,22.05,31,186.0,7.533754
1784073132427,-0.12078431,1.8244531,-0.30159476,-101.92,-25.97,16.03,31,186.0,7.533754
1784073132427,-0.27938998,1.7048889,-0.04538562,-76.86,-37.87,19.6,31,186.0,7.533754
1784073132427,-0.34844443,1.6675556,-0.2659695,-39.27,-38.64,22.82,31,186.0,7.533754
1784073132427,-0.31062308,1.8364094,-0.3418562,-37.8,-33.6,18.55,31,186.0,7.533754
1784073132427,-0.307939,1.7307538,-0.26133332,-40.46,-24.92,5.95,31,186.0,7.533754
1784073132427,-0.2942745,1.5843486,-0.22009587,-31.85,-18.97,-3.22,31,186.0,7.533754
1784073132564,-0.23620042,1.5931329,-0.30379084,-19.95,-15.47,-7.42,31,186.0,7.533754
1784073132564,-0.13932897,1.5367669,-0.3306318,-23.03,-1.54,-7.84,31,186.0,7.533754
1784073132564,-0.029525053,1.4684445,-0.33185184,-27.79,2.66,-9.7300005,31,186.0,7.533754
1784073132564,0.04514161,1.3291154,-0.27621785,-27.65,5.39,-12.88,31,186.0,7.533754
1784073132564,0.08930719,1.204183,-0.29525056,-22.61,8.82,-17.43,31,186.0,7.533754
1784073132564,0.07149455,1.1297604,-0.28183007,-23.45,15.33,-22.89,32,192.0,7.533754
1784073132564,0.023912854,1.0258126,-0.25694117,-24.08,25.27,-27.51,32,192.0,7.533754
1784073132564,0.08613508,0.90478426,-0.2579172,-21.98,31.01,-32.69,32,192.0,7.533754
1784073132785,0.16934206,0.7820479,-0.29817864,-17.57,33.46,-38.08,32,192.0,7.533754
1784073132785,0.23644444,0.6332026,-0.30647492,-24.99,22.61,-40.88,32,192.0,7.533754
1784073132785,0.45556426,0.28061002,-0.073446624,-33.11,12.53,-42.21,32,192.0,7.533754
1784073132785,0.26767758,0.4284793,-0.17495424,-38.08,3.29,-41.79,32,192.0,7.533754
1784073132785,0.167878,0.19130284,2.4400871E-4,-51.59,-5.7400002,-38.29,32,192.0,7.533754
1784073132785,-0.049045753,0.17495424,0.15226144,-35.420002,-1.47,-31.92,32,192.0,7.533754
1784073132785,-0.1876427,0.0031721133,0.3298998,-31.22,3.78,-23.87,32,192.0,7.533754
1784073132785,-0.30159476,-0.21497166,0.5736645,18.55,17.43,-12.39,32,192.0,7.533754
1784073132831,-0.35112852,-0.098091505,0.41139868,49.56,29.05,4.55,32,192.0,7.533754
1784073132831,-0.14884531,-0.21399564,0.33160785,77.56,35.84,22.33,32,192.0,7.533754
1784073132831,0.007808279,-0.18935075,0.1459172,91.56,35.7,36.33,32,192.0,7.533754
1784073132831,0.25889325,-0.3604009,-0.043189544,78.05,19.32,46.41,32,192.0,7.533754
1784073132831,0.29329848,-0.48264927,-0.086623095,48.86,9.94,51.45,32,192.0,7.533754
1784073132831,0.2547451,-0.53413504,-0.0475817,20.16,12.32,50.54,32,192.0,7.533754
1784073132831,0.22473203,-0.5192505,0.28109804,2.52,22.33,47.53,32,192.0,7.533754
1784073132831,0.20716341,-0.34210023,0.9957996,9.38,40.74,40.25,32,192.0,7.533754
1784073132877,0.08759913,-0.195695,1.8669107,57.33,81.06,20.51,32,192.0,7.533754
1784073132877,-0.7254379,-0.15982571,1.9793986,170.8,144.97,-6.79,32,192.0,7.533754
1784073132877,0.6500392,0.22497602,-0.23473638,237.02,159.6,-18.2,33,198.0,7.533754
1784073132877,2.5855162,0.24449673,-0.65613943,49.28,135.1,-29.05,33,198.0,7.533754
1784073132877,2.6155293,2.6255336,0.85061437,33.32,92.96,-115.64,33,198.0,7.533754
1784073132877,0.86354685,2.154841,-1.7105012,119.49,11.69,-253.96,33,198.0,7.533754
1784073132877,-0.8486623,2.604793,-1.1014553,7.42,2.94,-312.27,33,198.0,7.533754
1784073132877,-1.4933333,5.6168365,0.8618388,-49.21,38.920002,-230.79001,33,198.0,7.533754
1784073132924,-3.2797213,2.9593377,-1.1341525,154.28,78.75,-88.13,33,198.0,7.533754
1784073132924,-1.1107277,1.4645402,-0.475085,-123.62,26.11,4.69,33,198.0,7.533754
1784073132924,-0.5453595,1.5069978,0.54243135,-124.39,46.62,26.6,33,198.0,7.533754
1784073132924,-0.33380392,1.6534032,-0.42725924,-15.12,87.22,19.32,33,198.0,7.533754
1784073132924,-0.108339876,1.9747624,-0.31403923,-22.05,93.24,-2.8,33,198.0,7.533754
1784073132924,0.060758173,1.9984314,-0.09150327,-1.75,86.66,-28.56,33,198.0,7.533754
1784073132924,0.040505446,2.047233,-0.27524182,19.88,72.1,-41.51,33,198.0,7.533754
1784073132924,-0.12249237,2.0857866,-0.41261876,8.54,43.12,-38.71,33,198.0,7.533754
1784073132970,-0.40676254,1.8083485,-0.35332462,-61.88,-6.16,-11.41,33,198.0,7.533754
1784073132970,-0.5109542,1.4716166,-0.18325055,-78.75,-17.5,-1.6800001,33,198.0,7.533754
1784073132970,-0.39871022,1.4298911,-0.27865794,-71.47,-25.27,3.08,33,198.0,7.533754
1784073132970,-0.38211766,1.342536,-0.3335599,-61.25,-24.01,6.7200003,33,198.0,7.533754
1784073132970,-0.30940303,1.2349281,-0.35698473,-52.01,-15.47,8.96,33,198.0,7.533754
1784073132970,-0.24181265,1.1070675,-0.24766885,-38.01,-9.8,12.39,34,204.0,7.533754
1784073132970,-0.15836166,0.98408717,-0.20130719,-20.16,-11.27,16.87,34,204.0,7.533754
1784073132970,-0.09345534,0.92723316,-0.26401743,-11.41,-15.47,22.54,34,204.0,7.533754
1784073133055,-0.032941177,0.66199565,-0.34868845,-17.85,-41.02,37.03,34,204.0,7.533754
1784073133055,-0.038309366,0.5282788,-0.40969062,-29.05,-52.22,43.12,34,204.0,7.533754
1784073133055,-0.039773423,0.35918084,-0.195695,-29.89,-58.94,45.57,34,204.0,7.533754
1784073133055,0.0056122006,0.21082354,0.011956427,-7.91,-62.510002,46.76,34,204.0,7.533754
1784073133055,-0.017568627,0.17105012,-0.0065882355,21.42,-62.72,46.76,34,204.0,7.533754
1784073133055,0.028793028,0.21399564,-0.1483573,16.03,-57.33,43.61,34,204.0,7.533754
1784073133055,0.06929847,0.10248367,-0.03391721,-21.42,-42.91,35.84,34,204.0,7.533754
1784073133055,0.36796516,0.017568627,0.19447495,-36.47,-35.56,23.17,34,204.0,7.533754
1784073133105,0.54975164,-0.35186055,0.48923746,1.61,-29.82,-14.63,34,204.0,7.533754
1784073133105,0.4621525,-0.06197821,0.35137254,54.74,-26.18,-26.25,34,204.0,7.533754
1784073133105,0.25620914,-0.2993987,0.03806536,99.4,-15.89,-36.05,34,204.0,7.533754
1784073133105,0.08345098,-0.6458911,-0.12493246,85.75,4.69,-42.14,34,204.0,7.533754
1784073133105,0.09687146,-0.7752157,-0.19715904,39.2,23.8,-44.87,34,204.0,7.533754
1784073133105,0.2779259,-0.8381699,0.03050109,-19.25,23.87,-41.16,34,204.0,7.533754
1784073133105,0.66028756,-0.5685403,0.9072244,-55.58,-16.1,-32.48,34,204.0,7.533754
1784073133105,1.119756,-0.1566536,2.7080088,-17.92,-71.12,-16.03,34,204.0,7.533754
1784073133147,1.4240348,0.12078431,2.2580566,168.35,-108.57,17.08,34,204.0,7.533754
1784073133147,-0.811085,0.11566014,-0.3274597,256.13,-88.9,23.17,35,210.0,7.533754
1784073133147,-1.707817,-0.016592592,-0.55072767,165.41,-60.97,6.23,35,210.0,7.533754
1784073133147,-1.7297778,1.620706,-0.15640959,89.74,-49.21,41.09,35,210.0,7.533754
1784073133147,-2.2902658,2.6770196,-0.8940479,-54.88,8.33,142.8,35,210.0,7.533754
1784073133147,-0.8371939,4.9680176,-1.1614815,10.08,-1.33,255.29001,35,210.0,7.533754
1784073133147,1.4650284,4.8770022,0.11273203,110.18,35.7,205.52,35,210.0,7.533754
1784073133147,2.1470327,2.3388236,-1.568732,-10.92,5.46,87.71,35,210.0,7.533754
1784073133282,0.65809155,1.0582658,0.4924096,-144.76,-23.17,40.95,35,210.0,7.533754
1784073133282,0.32453158,1.0018997,0.6695599,-37.170002,-4.41,26.18,35,210.0,7.533754
1784073133282,0.17983443,1.6726798,-0.70738125,18.34,0.35,16.52,35,210.0,7.533754
1784073133282,-0.11395206,1.8081046,-0.6195381,-67.9,-26.460001,14.0,35,210.0,7.533754
1784073133282,-0.32721567,1.7422222,0.048313726,-88.06,-44.1,19.6,35,210.0,7.533754
1784073133282,-0.43799564,1.7305099,-0.2686536,-28.630001,-47.04,25.34,35,210.0,7.533754
1784073133282,-0.43872768,1.7895598,-0.39871022,-31.78,-44.73,27.51,35,210.0,7.533754
1784073133282,-0.33697602,1.7949281,-0.26767758,-37.94,-35.56,18.83,35,210.0,7.533754
1784073133419,-0.251817,1.6314422,-0.28793028,-34.16,-27.79,5.88,35,210.0,7.533754
1784073133419,-0.21082354,1.5902047,-0.18886274,-26.460001,-25.69,-4.27,35,210.0,7.533754
1784073133419,-0.19154684,1.6094815,-0.32672766,-24.01,-18.41,-9.45,35,210.0,7.533754
1784073133419,-0.09101525,1.4772288,-0.34210023,-33.53,-17.36,-12.18,35,210.0,7.533754
1784073133419,-0.013664488,1.3652288,-0.2964706,-38.5,-15.47,-13.65,35,210.0,7.533754
1784073133419,0.013420479,1.2786057,-0.33185184,-36.12,-14.14,-15.33,35,210.0,7.533754
1784073133419,-0.0036601308,1.2005229,-0.29403052,-34.02,-7.56,-18.06,35,210.0,7.533754
1784073133419,0.013908497,1.1073116,-0.26474947,-30.87,-0.49,-20.86,36,216.0,7.533754
1784073133463,0.0978475,1.032157,-0.34576035,-25.13,2.17,-25.97,36,216.0,7.533754
1784073133463,0.05661002,0.91137254,-0.35942483,-22.19,6.44,-31.5,36,216.0,7.533754
1784073133463,0.1459172,0.7395904,-0.34893245,-29.05,6.37,-33.46,36,216.0,7.533754
1784073133463,0.23790848,0.5743965,-0.2435207,-49.21,-9.17,-34.37,36,216.0,7.533754
1784073133463,0.22058389,0.49411762,-0.11395206,-51.38,-17.57,-34.44,36,216.0,7.533754
1784073133463,0.24034858,0.252305,-0.026352942,-55.3,-26.11,-32.06,36,216.0,7.533754
1784073133463,0.08369499,0.27841392,0.02098475,-41.09,-25.48,-26.53,36,216.0,7.533754
1784073133463,0.03586928,-0.15055338,0.35820478,-31.64,-18.48,-19.25,36,216.0,7.533754
1784073133520,-0.21985185,0.114928104,0.33453596,12.04,-2.1,-10.71,36,216.0,7.533754
1784073133520,-0.23742047,-0.16983007,0.50778216,53.27,12.6,1.96,36,216.0,7.533754
1784073133520,-0.15177341,-0.23351634,0.3948061,115.78,37.45,19.04,36,216.0,7.533754
1784073133520,0.030013073,-0.40578648,0.13762091,124.39,41.86,33.81,36,216.0,7.533754
1784073133520,0.17471023,-0.6266144,-0.12395642,84.77,34.51,43.26,36,216.0,7.533754
1784073133520,0.43750766,-0.7510588,-0.075154684,34.16,28.49,48.72,36,216.0,7.533754
1784073133520,0.43750766,-0.7037211,-0.027572986,22.47,27.44,50.4,36,216.0,7.533754
1784073133520,0.34502834,-0.53535515,0.21936384,8.4,29.82,47.53,36,216.0,7.533754
1784073133599,0.21985185,-0.2996427,0.9896993,-1.82,45.64,37.94,36,216.0,7.533754
1784073133599,0.05343791,-0.15055338,1.9476776,51.73,90.16,15.54,36,216.0,7.533754
1784073133599,-0.69859695,-0.28939435,1.7715032,162.33,151.97,-11.62,36,216.0,7.533754
1784073133599,1.1304923,0.1454292,-0.8498824,202.72,143.01,-24.36,36,216.0,7.533754
1784073133599,1.9381611,0.086623095,-0.14274509,42.420002,112.28,-30.87,36,216.0,7.533754
1784073133599,1.6170458,0.80108064,0.18593463,41.51,58.73,-63.07,36,216.0,7.533754
1784073133599,1.1451329,2.7548583,-0.7078693,14.63,14.56,-173.18001,36,216.0,7.533754
1784073133599,-0.044897605,2.6997125,-0.36064488,94.36,1.26,-295.05,36,216.0,7.533754
1784073133689,-3.5625272,3.2716687,-1.035817,86.38,38.85,-125.020004,36,216.0,7.533754
1784073133689,-1.4337952,1.3818214,-0.4704488,-182.56,30.59,-22.54,36,216.0,7.533754
1784073133689,-0.55560786,1.4047581,0.7713115,-123.41,43.47,3.71,36,216.0,7.533754
1784073133689,-0.2464488,1.6009412,-0.26694554,15.33,82.74,-0.63,36,216.0,7.533754
1784073133689,-0.087843135,2.0057516,-0.699573,18.48,87.99,-17.01,36,216.0,7.533754
1784073133689,0.11614815,1.9376732,-0.11029194,-11.41,81.41,-39.27,36,216.0,7.533754
1784073133689,0.0644183,2.013316,-0.26523748,23.24,67.41,-49.49,36,216.0,7.533754
1784073133689,-0.078570805,2.0782223,-0.4587364,14.42,37.66,-43.33,36,216.0,7.533754
1784073133772,-0.27084967,2.093351,-0.37894553,-16.73,6.51,-27.16,36,216.0,7.533754
1784073133772,-0.3721133,1.9989194,-0.4455599,-48.23,-14.84,-6.93,36,216.0,7.533754
1784073133772,-0.42823526,1.5767843,-0.2576732,-70.77,-26.25,5.67,36,216.0,7.533754
1784073133772,-0.29769063,1.5213943,-0.3608889,-60.9,-32.55,10.43,36,216.0,7.533754
1784073133772,-0.30671895,1.4235469,-0.45727232,-45.920002,-29.47,11.2,36,216.0,7.533754
1784073133772,-0.2832941,1.3108147,-0.46312854,-38.57,-18.97,10.64,36,216.0,7.533754
1784073133772,-0.23790848,1.1775861,-0.2876863,-29.54,-15.47,11.2,36,216.0,7.533754
1784073133772,-0.16738997,1.0560697,-0.2066754,-10.08,-16.8,14.49,37,222.0,7.533754
1784073133821,-0.1259085,1.0245926,-0.30427885,-0.84000003,-20.79,20.65,37,222.0,7.533754
1784073133821,-0.05783007,0.90917647,-0.20325926,-16.1,-38.71,27.37,37,222.0,7.533754
1784073133821,-0.111999996,0.78570807,-0.41286275,-30.03,-48.72,33.74,37,222.0,7.533754
1784073133821,-0.11736819,0.63661873,-0.43189543,-45.15,-53.27,38.29,37,222.0,7.533754
1784073133821,-0.14908932,0.49192157,-0.21985185,-47.39,-55.86,42.07,37,222.0,7.533754
1784073133821,-0.05294989,0.35283658,0.02293682,-27.3,-61.11,44.1,37,222.0,7.533754
1784073133821,-0.075154684,0.33722004,-0.024888888,3.57,-60.2,44.1,37,222.0,7.533754
1784073133821,0.07491068,0.21155554,-0.16909803,9.66,-54.670002,42.91,37,222.0,7.533754
1784073133910,0.26352942,0.050509803,-0.11004794,-18.06,-43.47,37.59,37,222.0,7.533754
1784073133910,0.42799127,-0.2381525,0.2464488,-39.2,-36.68,23.87,37,222.0,7.533754
1784073133910,0.5763486,-0.22326796,0.5268148,0.63,-40.39,5.7400002,37,222.0,7.533754
1784073133910,0.4931416,-0.25938126,0.39261004,63.35,-41.09,-10.29,37,222.0,7.533754
1784073133910,0.41359478,-0.5534117,0.14908932,66.85,-40.670002,-23.52,37,222.0,7.533754
1784073133910,0.16616993,-0.6754161,-0.06612636,53.97,-28.07,-30.66,37,222.0,7.533754
1784073133910,0.06295425,-0.68712854,-0.08027887,27.79,-6.51,-34.72,37,222.0,7.533754
1784073133910,0.21838781,-0.8991721,0.025864923,7.4900002,7.77,-34.79,37,222.0,7.533754
1784073133956,0.3860218,-0.8591547,0.08418301,-17.5,3.64,-32.97,37,222.0,7.533754
1784073133956,0.53535515,-0.39749017,0.57903266,-24.5,-20.65,-30.31,37,222.0,7.533754
1784073133956,0.87721133,0.10297168,2.382013,7.63,-64.47,-19.95,37,222.0,7.533754
1784073133956,1.5709281,0.24278867,2.6523745,123.270004,-107.31,13.58,37,222.0,7.533754
1784073133956,-0.25254902,0.23254031,0.51485837,221.55,-107.1,24.08,38,228.0,7.533754
1784073133956,-2.0833464,-0.121272326,-0.72616994,182.14,-63.77,-1.4,38,228.0,7.533754
1784073133956,-2.1707015,1.456976,-0.20716341,119.770004,-50.68,27.44,38,228.0,7.533754
1784073133956,-2.5328104,2.6838517,-1.2141873,-5.95,19.81,128.38,38,228.0,7.533754
1784073134003,-0.8891677,4.082998,-1.007512,17.710001,-10.29,248.5,38,228.0,7.533754
1784073134003,0.65687144,5.15322,0.065882355,60.2,55.23,251.02,38,228.0,7.533754
1784073134003,3.1335597,2.5120697,-1.7427101,85.82,-2.8700001,119.35,38,228.0,7.533754
1784073134003,1.3937777,1.1924706,-0.13981698,-92.82,-38.920002,55.37,38,228.0,7.533754
1784073134003,0.6505272,0.76203924,0.8755033,-87.22,-12.95,34.51,38,228.0,7.533754
1784073134003,0.32697168,1.5016296,-0.4599564,-5.7400002,-1.4,20.93,38,228.0,7.533754
1784073134003,-0.06466231,1.957438,-0.7891242,-56.28,-14.63,14.77,38,228.0,7.533754
1784073134003,-0.37016124,1.849586,-0.22009587,-92.89,-29.54,21.7,38,228.0,7.533754
1784073134096,-0.53413504,1.7241656,-0.24108061,-52.920002,-32.41,31.99,38,228.0,7.533754
1784073134096,-0.5487756,1.8183529,-0.47069278,-31.92,-27.09,36.26,38,228.0,7.533754
1784073134096,-0.39139,1.8293334,-0.39846623,-43.4,-18.48,28.42,38,228.0,7.533754
1784073134096,-0.27548584,1.7431982,-0.33551198,-43.96,-10.15,12.6,38,228.0,7.533754
1784073134096,-0.23058824,1.5838606,-0.307939,-34.51,-9.24,-0.35,38,228.0,7.533754
1784073134096,-0.1627538,1.5638518,-0.32038346,-28.630001,-14.35,-6.7200003,38,228.0,7.533754
1784073134096,0.0046361657,1.4799128,-0.36723313,-40.04,-14.21,-6.93,38,228.0,7.533754
1784073134096,-0.010248366,1.3793812,-0.33502397,-50.19,-19.88,-8.47,38,228.0,7.533754
1784073134228,-0.06417429,1.2773856,-0.26548147,-57.54,-21.98,-12.25,38,228.0,7.533754
1784073134228,-0.13274074,1.2276078,-0.20594336,-49.420002,-15.47,-15.68,38,228.0,7.533754
1784073134228,-0.16372985,1.1451329,-0.30110675,-38.43,-4.41,-18.9,39,234.0,7.533754
1784073134228,-0.13615687,1.063146,-0.35698473,-28.14,1.26,-23.59,39,234.0,7.533754
1784073134228,-0.052217867,0.9125926,-0.38870588,-23.24,4.83,-30.66,39,234.0,7.533754
1784073134228,0.024156863,0.7681394,-0.36747712,-27.44,1.89,-34.37,39,234.0,7.533754
1784073134228,0.13908496,0.68200433,-0.26718953,-37.24,-8.96,-33.670002,39,234.0,7.533754
1784073134228,0.1932549,0.5080261,-0.109071895,-55.93,-28.210001,-31.85,39,234.0,7.533754
1784073134274,0.121272326,0.42969933,-0.0073202616,-38.15,-31.08,-27.44,39,234.0,7.533754
1784073134274,-0.0065882355,0.31672332,0.031233115,-41.72,-32.55,-20.09,39,234.0,7.533754
1784073134274,-0.04684967,0.23644444,0.21082354,-16.03,-20.09,-10.36,39,234.0,7.533754
1784073134274,-0.23620042,0.04001743,0.40261438,16.45,-3.29,-0.49,39,234.0,7.533754
1784073134274,-0.23742047,-0.07613072,0.5129063,72.66,18.69,11.83,39,234.0,7.533754
1784073134274,-0.051973857,-0.23400435,0.3211155,119.07,30.94,27.37,39,234.0,7.533754
1784073134274,0.044165578,-0.3579608,-0.004392157,123.41,26.6,39.97,39,234.0,7.533754
1784073134274,0.252793,-0.7061612,-0.114928104,74.83,15.47,48.3,39,234.0,7.533754
1784073134359,0.3948061,-0.7312941,-0.098091505,29.89,15.26,55.23,39,234.0,7.533754
1784073134359,0.43701962,-0.7312941,-0.03562527,10.15,19.39,58.170002,39,234.0,7.533754
1784073134359,0.39846623,-0.5487756,0.1844706,-2.24,26.53,55.16,39,234.0,7.533754
1784073134359,0.32038346,-0.3689412,0.93113726,-9.03,48.58,43.54,39,234.0,7.533754
1784073134359,0.24913289,-0.24815686,2.0299084,43.33,90.090004,20.86,39,234.0,7.533754
1784073134359,-0.50851417,-0.14982136,1.9725664,159.46,157.64,-12.88,39,234.0,7.533754
1784073134359,0.4953377,0.16177778,-0.47679305,214.34,164.22,-30.52,40,240.0,7.533754
1784073134359,2.2443922,0.10589978,-0.45288017,45.29,133.49,-38.01,40,240.0,7.533754
1784073134450,1.820793,0.59611326,0.29720262,27.93,88.41,-73.64,40,240.0,7.533754
1784073134450,1.0197124,2.2795293,-0.9328453,59.010002,26.25,-157.29,40,240.0,7.533754
1784073134450,0.14713725,1.8564183,-0.79034424,54.32,4.34,-247.59,40,240.0,7.533754
1784073134450,-1.1358606,3.4493072,-0.005124183,25.9,15.82,-265.79,40,240.0,7.533754
1784073134450,-2.745586,5.118815,-0.6231983,120.89,46.06,-175.91,40,240.0,7.533754
1784073134450,-2.3034422,2.2778213,-1.8425099,-26.81,69.090004,-57.12,40,240.0,7.533754
1784073134450,-0.7925403,1.0807146,0.6910327,-199.92,60.41,-2.17,40,240.0,7.533754
1784073134450,-0.2627974,1.3681569,0.23278432,-51.45,90.72,2.1,40,240.0,7.533754
1784073134496,0.08369499,2.0152678,-0.39261004,4.2,97.16,-35.7,40,240.0,7.533754
1784073134496,0.14469717,2.0931067,-0.391634,19.04,84.840004,-48.79,40,240.0,7.533754
1784073134496,0.054901965,2.156061,-0.6195381,6.16,59.920002,-42.84,40,240.0,7.533754
1784073134496,-0.14323312,2.1214118,-0.49509364,-22.12,25.76,-23.1,40,240.0,7.533754
1784073134496,-0.30403486,1.9825709,-0.4870414,-48.51,-1.47,-0.84000003,40,240.0,7.533754
1784073134496,-0.43018737,1.8251852,-0.48386928,-57.68,-12.39,13.93,40,240.0,7.533754
1784073134496,-0.46556863,1.7239215,-0.59269714,-55.16,-26.81,18.06,40,240.0,7.533754
1784073134496,-0.4897255,1.4991895,-0.48923746,-52.15,-20.72,19.04,40,240.0,7.533754
1784073134544,-0.27304575,1.2173594,-0.42677125,-22.19,-12.95,20.16,40,240.0,7.533754
1784073134544,-0.20569934,1.1707537,-0.36869717,-11.62,-15.33,21.14,40,240.0,7.533754
1784073134544,-0.14176907,1.0904748,-0.32428756,-8.75,-22.26,23.8,41,246.0,7.533754
1784073134544,-0.084915034,0.99701965,-0.34576035,-16.31,-29.89,27.44,41,246.0,7.533754
1784073134544,-0.09491939,0.83890194,-0.29232246,-33.25,-37.87,31.08,41,246.0,7.533754
1784073134544,-0.070030496,0.71396947,-0.32941175,-45.71,-41.3,34.72,41,246.0,7.533754
1784073134544,-0.03391721,0.615878,-0.17983443,-50.89,-38.43,38.15,41,246.0,7.533754
1784073134544,-0.0729586,0.50778216,0.061490197,-40.18,-37.45,38.36,41,246.0,7.533754
1784073134587,-0.04733769,0.4501961,0.07759477,-17.57,-37.24,36.89,41,246.0,7.533754
1784073134587,0.067102395,0.32477558,0.015372549,-1.82,-38.64,37.03,41,246.0,7.533754
1784073134587,0.21131155,0.27572984,0.012688453,-8.4,-36.89,35.21,41,246.0,7.533754
1784073134587,0.34283224,0.029769063,0.13615687,-28.98,-30.17,26.53,41,246.0,7.533754
1784073134587,0.55804795,-0.097603485,0.3779695,-26.95,-30.87,11.2,41,246.0,7.533754
1784073134587,0.55926794,-0.34356427,0.5236427,16.31,-40.32,-6.7200003,41,246.0,7.533754
1784073134587,0.41261876,-0.3303878,0.26767758,93.03,-42.98,-17.92,41,246.0,7.533754
1784073134587,0.2584052,-0.7808279,0.0148845315,96.74,-37.24,-22.4,41,246.0,7.533754
1784073134675,0.076862745,-0.90624833,0.04953377,36.4,-27.72,-21.35,41,246.0,7.533754
1784073134675,-0.11297604,-0.95383006,0.017568627,15.61,-21.91,-20.44,41,246.0,7.533754
1784073134675,-0.054901965,-0.86086273,0.08930719,3.43,-19.67,-18.48,41,246.0,7.533754
1784073134675,0.44141176,-0.42164707,1.036793,-28.07,-53.13,-13.2300005,41,246.0,7.533754
1784073134675,1.1566013,0.008296296,2.7131329,16.17,-98.840004,1.12,41,246.0,7.533754
1784073134675,0.92259693,0.26889762,1.3803573,178.99,-99.05,27.09,41,246.0,7.533754
1784073134675,-1.4181787,0.1590937,-0.91722876,201.88,-62.510002,17.36,41,246.0,7.533754
1784073134675,-1.3347276,0.21789977,-0.06929847,107.24,-32.13,-1.61,41,246.0,7.533754
1784073134722,-1.0255686,1.121464,-0.35674074,62.510002,-5.81,15.05,41,246.0,7.533754
1784073134722,-0.88501966,1.6150936,-0.6288104,-18.9,16.38,79.590004,41,246.0,7.533754
1784073134722,-0.7988845,4.235503,-0.27865794,-66.99,1.12,178.78,41,246.0,7.533754
1784073134722,0.73739433,6.715608,-0.14225708,123.2,65.1,210.28,41,246.0,7.533754
1784073134722,2.462536,2.9251764,-2.8678343,68.88,7.4900002,140.28,41,246.0,7.533754
1784073134722,0.84061,1.0175164,0.34307626,-172.76,-32.13,95.62,41,246.0,7.533754
1784073134722,0.4599564,1.1268322,0.812549,-84.07,-4.41,66.08,41,246.0,7.533754
1784073134722,0.31721133,1.6219258,-0.6976209,22.47,-0.91,42.77,41,246.0,7.533754
1784073134766,-0.016348584,1.7949281,-0.72616994,-67.48,-16.73,28.49,41,246.0,7.533754
1784073134766,-0.25352505,1.6858562,-0.19935511,-106.82,-26.95,20.65,41,246.0,7.533754
1784073134766,-0.4953377,1.6275381,-0.32697168,-63.420002,-26.32,14.49,41,246.0,7.533754
1784073134766,-0.50851417,1.84373,-0.6349107,-53.760002,-14.91,2.38,41,246.0,7.533754
1784073134766,-0.45971242,1.7802876,-0.4428758,-67.62,-5.04,-18.55,41,246.0,7.533754
1784073134766,-0.38260567,1.683904,-0.30183876,-53.13,1.33,-36.05,41,246.0,7.533754
1784073134766,-0.29866666,1.6560872,-0.3608889,-32.13,-1.33,-41.51,41,246.0,7.533754
1784073134766,-0.20569934,1.5677559,-0.41823092,-25.83,-5.25,-38.01,41,246.0,7.533754
1784073134946,-0.2554771,1.4625882,-0.34844443,-21.84,3.85,-29.19,41,246.0,7.533754
1784073134946,-0.13176471,1.3569325,-0.3335599,-15.33,10.22,-24.08,41,246.0,7.533754
1784073134946,-0.0063442267,1.1612375,-0.22814815,2.8700001,24.92,-24.01,42,251.99998,7.533754
1784073134946,0.15201743,1.1600174,-0.47313288,5.11,33.88,-26.95,42,251.99998,7.533754
1784073134946,0.3191634,1.0536296,-0.42823526,-17.92,38.78,-34.93,43,258.0,7.533754
1784073134946,0.42481914,0.76984745,-0.36528105,-45.920002,27.72,-43.61,43,258.0,7.533754
1784073134946,0.31477123,0.62954247,-0.23912853,-56.84,4.13,-47.81,43,258.0,7.533754
1784073134946,0.19715904,0.53291506,-0.14518519,-54.25,-10.29,-48.16,43,258.0,7.533754
1784073135079,0.0644183,0.50192595,-0.12176035,-55.37,-19.04,-45.29,43,258.0,7.533754
1784073135079,-0.0588061,0.3389281,0.042945534,-49.49,-18.69,-36.82,43,258.0,7.533754
1784073135079,-0.21179956,0.21155554,0.16006972,-3.5,-10.43,-22.54,43,258.0,7.533754
1784073135079,-0.29012635,0.0053681917,0.3613769,29.61,0.0,-5.53,43,258.0,7.533754
1784073135079,-0.3216035,-0.16104576,0.58147275,71.68,15.12,10.92,43,258.0,7.533754
1784073135079,-0.20838344,-0.15470152,0.45458823,109.55,28.28,25.34,43,258.0,7.533754
1784073135079,-0.15640959,-0.36820915,0.23742047,113.47,30.94,38.01,43,258.0,7.533754
1784073135079,0.044165578,-0.6466231,0.07149455,82.74,28.42,47.04,43,258.0,7.533754
1784073135124,0.19935511,-0.7508148,-0.038797386,44.66,25.83,52.99,43,258.0,7.533754
1784073135124,0.28988236,-0.6812723,-0.073446624,25.62,29.61,54.46,43,258.0,7.533754
1784073135124,0.40115032,-0.55853593,0.067102395,5.6,34.3,50.96,43,258.0,7.533754
1784073135124,0.38675383,-0.4035904,0.60587364,-13.3,51.03,40.39,43,258.0,7.533754
1784073135124,0.36357298,-0.25108495,1.5096819,13.86,76.44,21.91,43,258.0,7.533754
1784073135124,0.060758173,-0.29817864,2.183146,102.340004,129.08,-5.53,43,258.0,7.533754
1784073135124,-0.27011764,-0.12102832,1.1261002,224.91,174.09,-26.460001,44,251.99998,7.533754
1784073135124,2.073098,0.26767758,-0.70982134,150.92,174.23,-37.94,44,251.99998,7.533754
1784073135216,2.9590938,1.0404532,0.06954248,38.22,128.73,-80.01,44,251.99998,7.533754
1784073135216,1.6202178,2.769743,-0.8013246,90.93,52.78,-188.44,44,251.99998,7.533754
1784073135216,0.01708061,1.7517387,-1.3928018,65.52,18.48,-276.92,44,251.99998,7.533754
1784073135216,-1.3369237,2.5276864,-0.11907625,-82.04,41.44,-289.1,44,251.99998,7.533754
1784073135216,-1.7139173,5.926728,0.8332898,75.67,71.89,-196.98,44,251.99998,7.533754
1784073135216,-2.6135774,3.0100915,-2.2844095,84.21,63.49,-57.68,44,251.99998,7.533754
1784073135216,-0.86745095,0.8662309,0.23327233,-210.49,23.87,9.7300005,44,251.99998,7.533754
1784073135216,-0.66858387,1.3530284,0.35381263,-94.99,71.12,22.19,44,251.99998,7.533754
1784073135305,-0.2884183,1.7034248,-0.6876166,3.99,103.39,15.12,44,251.99998,7.533754
1784073135305,-0.019764706,1.9208367,-0.21887583,-3.71,100.87,-10.57,44,251.99998,7.533754
1784073135305,0.06637037,2.1150675,-0.38821787,29.68,85.33,-33.95,44,251.99998,7.533754
1784073135305,-0.0073202616,2.2709892,-0.5456035,30.17,59.22,-40.46,44,251.99998,7.533754
1784073135305,-0.224488,2.2009585,-0.5495076,1.89,24.5,-30.73,44,251.99998,7.533754
1784073135305,-0.44336385,2.0569935,-0.56366014,-37.1,-6.86,-12.39,44,251.99998,7.533754
1784073135305,-0.46703267,1.7571067,-0.39675817,-59.43,-23.73,3.01,44,251.99998,7.533754
1784073135305,-0.616854,1.6538911,-0.46703267,-57.54,-37.45,8.89,44,251.99998,7.533754
1784073135355,-0.4848453,1.5240785,-0.48313725,-57.47,-43.75,12.81,44,251.99998,7.533754
1784073135355,-0.44604793,1.3625447,-0.49753374,-46.34,-42.28,14.77,44,251.99998,7.533754
1784073135355,-0.30159476,1.2385882,-0.45678434,-34.16,-37.1,16.94,44,251.99998,7.533754
1784073135355,-0.2322963,1.1168278,-0.3474684,-19.53,-31.92,21.77,45,258.0,7.533754
1784073135355,-0.114196084,1.0599738,-0.29744664,-5.46,-35.14,27.16,45,258.0,7.533754
1784073135355,-0.037333332,0.9865272,-0.34917647,-1.33,-42.35,34.23,45,258.0,7.533754
1784073135355,0.0012200436,0.88062745,-0.40993467,-15.26,-50.96,39.62,45,258.0,7.533754
1784073135355,0.01903268,0.7173856,-0.3694292,-29.4,-58.94,43.82,45,258.0,7.533754
1784073135485,-0.06344226,0.5812288,-0.3059869,-30.66,-59.08,48.37,45,258.0,7.533754
1784073135485,-0.09443137,0.41896296,-0.034405228,-29.82,-56.56,49.77,45,258.0,7.533754
1784073135485,-0.13005665,0.3108671,0.11151198,-19.88,-54.46,46.9,45,258.0,7.533754
1784073135485,-0.037089325,0.34844443,-0.063686274,-12.18,-47.25,42.84,45,258.0,7.533754
1784073135485,0.18886274,0.21789977,-0.101019606,-33.11,-35.63,37.38,45,258.0,7.533754
1784073135485,0.47435296,0.036845315,0.15592156,-57.54,-23.03,24.43,45,258.0,7.533754
1784073135485,0.7173856,-0.19642702,0.46825272,-51.45,-19.32,0.84000003,45,258.0,7.533754
1784073135485,0.74471456,-0.32355556,0.64418304,-16.8,-26.39,-24.64,45,258.0,7.533754
1784073135577,0.5212026,-0.6510152,0.17763834,115.43,-23.8,-49.07,45,258.0,7.533754
1784073135577,0.31184313,-0.8262135,-0.16568191,72.52,-14.07,-48.65,45,258.0,7.533754
1784073135577,-0.09662745,-0.9835992,-0.14518519,19.11,-5.67,-46.41,45,258.0,7.533754
1784073135577,-0.15982571,-1.0065359,-0.11322004,-15.54,-0.49,-46.41,45,258.0,7.533754
1784073135577,-0.018056644,-0.8337778,-0.048557736,-41.86,-9.03,-47.32,45,258.0,7.533754
1784073135577,0.25059694,-0.2608453,0.59196514,-33.95,-28.28,-42.56,45,258.0,7.533754
1784073135577,0.78863615,0.307939,2.8473377,18.13,-70.840004,-25.13,45,258.0,7.533754
1784073135577,1.8791112,0.23278432,3.247024,169.12,-117.95,9.45,45,258.0,7.533754
1784073135624,-2.2297516,0.5014379,-1.3659607,151.76,-60.13,22.33,45,258.0,7.533754
1784073135624,-2.5542831,2.046257,-0.046361655,91.840004,-54.670002,66.01,45,258.0,7.533754
1784073135624,-2.5164618,3.3743966,-1.0214205,52.5,18.55,178.01,45,258.0,7.533754
1784073135624,-0.3889499,3.8084881,-1.5889847,33.81,3.64,272.3,45,258.0,7.533754
1784073135624,1.1024314,3.6952682,0.4609325,9.52,11.4800005,241.5,45,258.0,7.533754
1784073135624,2.6548147,2.6145535,-1.3605926,43.26,-19.11,107.73,45,258.0,7.533754
1784073135624,0.76911545,1.233464,-0.051729847,-83.79,-33.74,52.85,45,258.0,7.533754
1784073135624,0.2908584,1.2163835,0.3250196,-53.13,-13.86,40.53,45,258.0,7.533754
1784073135845,0.013420479,1.679024,-0.73763835,-83.3,-26.39,13.02,45,258.0,7.533754
1784073135845,-0.12444445,1.6460826,-0.2066754,-100.03,-46.83,14.91,45,258.0,7.533754
1784073135845,-0.30671895,1.7044008,-0.30086273,-34.86,-51.38,18.83,45,258.0,7.533754
1784073135845,-0.33477995,1.8705709,-0.6656558,-16.87,-45.99,17.22,45,258.0,7.533754
1784073135845,-0.34673637,1.8932636,-0.6056296,-37.66,-35.84,6.16,45,258.0,7.533754
1784073135845,-0.29451853,1.6565751,-0.39016995,-40.88,-25.41,-7.07,45,258.0,7.533754
1784073135845,-0.21033551,1.5804445,-0.35112852,-22.19,-17.29,-15.47,45,258.0,7.533754
1784073135845,-0.15860566,1.7058649,-0.43043137,-8.33,-5.6,-18.83,45,258.0,7.533754
1784073135981,-0.101019606,1.622414,-0.559512,-17.5,-4.69,-21.84,45,258.0,7.533754
1784073135981,-0.10419172,1.4867451,-0.5265708,-35.63,-9.38,-26.32,45,258.0,7.533754
1784073135981,-0.14445315,1.3708409,-0.38284966,-46.76,-5.04,-31.08,45,258.0,7.533754
1784073135981,-0.108095855,1.178318,-0.3213595,-40.53,2.52,-34.93,45,258.0,7.533754
1784073135981,0.006832244,1.1312244,-0.2042353,-28.14,5.25,-39.97,46,246.0,7.533754
1784073135981,0.111999996,1.0497255,-0.25742918,-15.96,6.3,-45.22,46,246.0,7.533754
1784073135981,0.26767758,0.8984401,-0.34624836,-34.09,-3.92,-46.9,46,246.0,7.533754
1784073135981,0.3806536,0.6793203,-0.27548584,-64.26,-24.01,-46.62,46,246.0,7.533754
1784073136027,0.06832244,0.46605664,0.04611765,-45.920002,-38.29,-39.34,46,246.0,7.533754
1784073136027,-0.023424836,0.363329,0.08467103,-34.51,-38.920002,-32.83,46,246.0,7.533754
1784073136027,-0.08564706,0.25694117,0.23376034,-3.57,-24.36,-21.07,46,246.0,7.533754
1784073136027,-0.22277994,0.031233115,0.45824835,37.8,-3.99,-10.5,46,246.0,7.533754
1784073136027,-0.16812201,-0.19447495,0.55560786,92.96,16.94,3.43,46,246.0,7.533754
1784073136027,-0.06344226,-0.33233985,0.23961654,149.59,30.73,20.58,46,246.0,7.533754
1784073136027,0.1568976,-0.67419606,0.00951634,129.5,30.1,35.7,46,246.0,7.533754
1784073136027,0.31525928,-0.8715991,-0.053193897,72.17,33.32,48.51,46,246.0,7.533754
1784073136072,0.45434424,-0.7144575,0.11810021,-2.59,48.51,58.45,46,246.0,7.533754
1784073136072,0.44360784,-0.5194946,0.019764706,-3.15,54.88,54.18,46,246.0,7.533754
1784073136072,0.42579523,-0.3535686,0.022204792,-3.92,61.18,46.9,46,246.0,7.533754
1784073136072,0.3808976,-0.07369063,1.3327756,-20.16,78.47,33.04,46,246.0,7.533754
1784073136072,-0.07369063,-0.0783268,2.996183,55.44,141.96,-0.35,46,246.0,7.533754
1784073136072,-1.622414,-0.1822745,2.3444357,238.98,217.14,-30.87,46,246.0,7.533754
1784073136072,2.9310327,0.5263268,-2.0230763,195.02,172.41,-48.3,46,246.0,7.533754
1784073136072,3.8853507,1.5640959,0.9103965,3.85,132.72,-101.36,46,246.0,7.533754
1784073136119,-0.101019606,1.78834,-1.347416,64.4,11.9,-306.04,46,246.0,7.533754
1784073136119,-0.728366,2.271233,0.4575163,-186.9,12.81,-283.99,46,246.0,7.533754
1784073136119,-4.060793,7.196793,0.19862309,154.7,79.17,-145.81,46,246.0,8.265793
1784073136119,-2.0918868,1.9498737,-2.6738474,-45.85,84.0,-11.13,46,246.0,8.265793
1784073136119,-0.5373072,1.315207,-0.024400871,-239.33,51.87,37.31,46,246.0,8.265793
1784073136119,-0.5168104,1.2930022,0.505586,-106.4,94.15,36.19,46,246.0,8.265793
1784073136119,-0.41017866,1.6934205,-0.95505005,15.12,110.11,20.93,46,246.0,8.265793
1784073136119,-0.13688889,2.0303965,-0.5487756,-12.67,95.06,-8.82,46,246.0,8.265793
1784073136208,-0.2659695,2.1045752,-0.65784746,24.08,56.21,-44.38,46,246.0,8.265793
1784073136208,-0.4240871,2.074806,-0.53169495,2.59,23.73,-33.53,46,246.0,8.265793
1784073136208,-0.44458386,1.96061,-0.65955555,-41.51,-12.67,-14.49,46,246.0,8.265793
1784073136208,-0.45532027,1.6648716,-0.5072941,-75.67,-34.16,1.61,46,246.0,8.265793
1784073136208,-0.42189106,1.4718606,-0.47215685,-69.44,-41.51,11.76,46,246.0,8.265793
1784073136208,-0.34063616,1.314719,-0.5763486,-51.45,-35.98,18.06,46,246.0,8.265793
1784073136208,-0.23107626,1.2346841,-0.5548758,-40.95,-33.04,21.0,46,246.0,8.265793
1784073136208,-0.1932549,1.1534292,-0.28207406,-25.41,-30.45,24.57,46,246.0,8.265793
1784073136254,-0.17422222,1.0733943,-0.34307626,-2.73,-59.920002,41.02,47,251.99998,8.265793
1784073136254,-0.21692374,0.8464662,-0.5097342,-33.32,-70.98,47.32,47,251.99998,8.265793
1784073136254,-0.40944663,0.5829368,-0.36796516,-41.65,-64.26,51.1,47,251.99998,8.265793
1784073136254,-0.4360436,0.43921572,-0.14225708,-28.84,-54.88,50.68,47,251.99998,8.265793
1784073136254,-0.19618301,0.43457952,-0.032697167,-16.59,-52.29,48.93,47,251.99998,8.265793
1784073136254,0.16885403,0.34063616,-0.09028322,-17.99,-53.2,46.34,47,251.99998,8.265793
1784073136254,0.5068061,0.22277994,-0.19618301,-41.23,-48.58,40.670002,47,251.99998,8.265793
1784073136254,0.8086449,-0.101019606,0.015372549,-59.5,-38.57,27.09,47,251.99998,8.265793
1784073136391,0.85281044,-0.33185184,0.47313288,21.28,-30.24,-26.25,47,251.99998,8.265793
1784073136391,0.6981089,-0.37382135,0.32965577,92.54,-21.84,-44.94,47,251.99998,8.265793
1784073136391,0.50900215,-0.6671198,0.13225272,81.13,-15.33,-52.99,47,251.99998,8.265793
1784073136391,0.27328977,-0.96798253,0.0063442267,39.48,-1.19,-56.14,47,251.99998,8.265793
1784073136391,0.08515904,-0.9487059,0.039529413,10.92,3.57,-55.09,47,251.99998,8.265793
1784073136391,0.16421786,-0.7864401,0.5233987,-32.76,-16.94,-47.88,47,251.99998,8.265793
1784073136391,0.8664749,-0.167878,3.0096035,-55.23,-86.31,-32.97,47,251.99998,8.265793
1784073136391,1.4982134,-0.0056122006,3.4139256,145.88,-122.5,-3.5,47,251.99998,8.265793
1784073136473,-2.351512,-0.19471896,-1.5636079,244.86,-65.590004,-0.35,47,251.99998,8.265793
1784073136473,-2.1043313,1.2461525,-0.13859694,138.25,-22.4,20.51,47,251.99998,8.265793
1784073136473,-1.7837038,2.1626492,-1.3052026,31.57,52.36,83.65,47,251.99998,8.265793
1784073136473,-0.99701965,2.9168801,-0.038553376,-66.22,28.07,175.49,47,251.99998,8.265793
1784073136473,0.23912853,4.757682,-0.4787451,-3.29,27.02,239.82,47,251.99998,8.265793
1784073136473,2.9044356,4.2762527,-1.1265882,136.22,10.36,136.5,47,251.99998,8.265793
1784073136473,1.4359913,1.7680871,-0.8781873,-118.86,7.98,59.5,47,251.99998,8.265793
1784073136473,0.40993467,0.82767755,0.9433376,-139.37,1.89,40.6,47,251.99998,8.265793
1784073136521,0.15030937,1.8998518,-0.6200262,-27.86,-24.78,23.17,47,251.99998,8.265793
1784073136521,-0.25986928,2.022344,-0.2186318,-61.95,-47.6,26.18,47,251.99998,8.265793
1784073136521,-0.644427,1.9176644,-0.33136383,-33.6,-53.83,36.54,47,251.99998,8.265793
1784073136521,-0.79351634,1.8122528,-0.6744401,-41.09,-45.08,40.32,47,251.99998,8.265793
1784073136521,-0.5541438,1.7937081,-0.5209586,-68.88,-33.6,29.61,47,251.99998,8.265793
1784073136521,-0.46337253,1.6458389,-0.39919823,-72.66,-23.38,4.97,47,251.99998,8.265793
1784073136521,-0.35503268,1.5604358,-0.3025708,-55.510002,-20.58,-15.12,47,251.99998,8.265793
1784073136521,-0.28500217,1.5748322,-0.31672332,-40.81,-22.4,-25.2,47,251.99998,8.265793
1784073136656,-0.19423094,1.3840175,-0.31525928,-40.670002,-13.72,-28.210001,47,251.99998,8.265793
1784073136656,-0.17519826,1.3049586,-0.2876863,-29.33,-13.65,-29.82,47,251.99998,8.265793
1784073136656,-0.17105012,1.204671,-0.26206535,-11.06,-6.02,-32.41,47,251.99998,8.265793
1784073136656,0.004148148,1.0760784,-0.3181874,7.14,0.56,-34.37,48,246.0,8.265793
1784073136656,0.1066318,1.0214205,-0.44799998,2.31,6.3,-34.65,48,246.0,8.265793
1784073136656,0.3157473,0.9082004,-0.41554683,-32.62,-0.49,-35.98,48,246.0,8.265793
1784073136656,0.5024139,0.7071372,-0.25938126,-63.28,-18.2,-40.11,48,246.0,8.265793
1784073136656,0.48289326,0.51656646,-0.1481133,-64.33,-34.65,-41.09,48,246.0,8.265793
1784073136746,0.1459172,0.24132463,-0.011956427,-65.31,-44.52,-32.48,48,246.0,8.265793
1784073136746,0.028793028,0.05294989,0.1481133,-52.29,-37.66,-23.73,48,246.0,8.265793
1784073136746,-0.20960349,-0.008296296,0.28109804,-2.17,-24.92,-9.24,48,246.0,8.265793
1784073136746,-0.3223355,-0.12176035,0.5231547,62.23,-5.81,12.11,48,246.0,8.265793
1784073136746,-0.23620042,-0.3213595,0.5829368,129.71,12.25,37.8,48,246.0,8.265793
1784073136746,-0.10150763,-0.42555118,0.28988236,151.55,20.86,61.88,48,246.0,8.265793
1784073136746,0.06685839,-0.7354423,0.06612636,103.04,17.92,79.590004,48,246.0,8.265793
1784073136746,0.12566449,-0.7025011,-0.102727674,40.11,13.86,88.55,48,246.0,8.265793
1784073136792,0.31550327,-0.5419434,0.084427014,5.53,21.0,79.45,48,246.0,8.265793
1784073136792,0.3311198,-0.447512,-0.042945534,-1.12,23.94,65.94,48,246.0,8.265793
1784073136792,0.28793028,-0.447756,-0.17788234,-25.27,25.41,53.06,48,246.0,8.265793
1784073136792,0.30915904,-0.30110675,0.13957298,-49.77,25.83,42.7,48,246.0,8.265793
1784073136792,0.25328103,-0.085403055,1.2822658,-36.26,44.31,25.06,48,246.0,8.265793
1784073136792,-0.16885403,0.006100218,2.4813247,66.29,105.21,-11.4800005,48,246.0,8.265793
1784073136792,-0.8901438,-0.0056122006,2.2592766,219.66,165.48,-52.36,48,246.0,8.265793
1784073136792,1.3288715,0.45336822,-0.9821351,255.29001,147.56,-71.89,48,246.0,8.265793
1784073136883,1.5838606,2.9542134,-1.5089499,86.31,17.43,-291.55,48,246.0,8.265793
1784073136883,-0.17739433,2.326379,-1.7732114,83.86,-8.26,-352.94,48,246.0,8.265793
1784073136883,-0.85110235,3.945621,0.6910327,-138.04,31.57,-265.93,48,246.0,8.265793
1784073136883,-3.8814464,4.4153376,-0.2630414,215.74,105.0,-77.77,48,246.0,8.265793
1784073136883,-1.4315991,1.4984576,-1.3281394,25.2,84.56,14.28,48,246.0,8.265793
1784073136883,-0.59855336,1.3449761,-0.6105098,-127.82,66.92,31.99,48,246.0,8.265793
1784073136883,-0.4240871,1.5719042,-0.17202614,-87.15,90.65,30.52,48,246.0,8.265793
1784073136883,-0.30574292,1.7600348,-0.4702048,-18.06,104.37,17.01,48,246.0,8.265793
1784073137018,-0.19471896,2.101159,-0.35674074,21.35,77.56,-23.94,48,246.0,8.265793
1784073137018,-0.25962526,2.1965663,-0.6827364,34.37,45.15,-33.95,48,246.0,8.265793
1784073137018,-0.43018737,2.160453,-0.7325142,-0.35,5.67,-27.51,48,246.0,8.265793
1784073137018,-0.48655337,1.7519826,-0.5363312,-46.97,-27.09,-13.37,48,246.0,8.265793
1784073137018,-0.35454467,1.5460392,-0.49972984,-56.21,-45.57,-3.08,48,246.0,8.265793
1784073137018,-0.4338475,1.3378997,-0.53584313,-31.43,-45.78,1.33,48,246.0,8.265793
1784073137018,-0.44141176,1.2329761,-0.7688714,-1.33,-32.55,4.2,48,246.0,8.265793
1784073137018,-0.38772985,1.1261002,-0.700549,-3.64,-35.35,9.59,48,246.0,8.265793
1784073137194,-0.26718953,1.0843748,-0.17617428,21.7,-34.79,32.34,49,240.0,8.265793
1784073137194,-0.24718083,1.093647,-0.35210457,-10.5,-54.04,44.73,49,240.0,8.265793
1784073137194,-0.30891502,0.8420741,-0.37723747,-79.73,-56.91,51.87,49,240.0,8.265793
1784073137194,-0.4111547,0.5546318,-0.22912417,-97.51,-52.15,51.73,49,240.0,8.265793
1784073137194,-0.34649238,0.38553378,-0.02464488,-76.37,-44.66,48.44,49,240.0,8.265793
1784073137194,-0.054413944,0.3418562,0.0419695,-44.73,-48.23,46.2,49,240.0,8.265793
1784073137194,0.2889063,0.37382135,-0.16812201,-41.44,-53.2,44.03,49,240.0,8.265793
1784073137194,0.66150767,0.102239646,-0.097603485,-58.45,-48.02,39.48,49,240.0,8.265793
1784073137244,0.94138557,-0.39651415,0.6754161,-24.29,-43.4,-3.08,49,240.0,8.265793
1784073137244,0.7478867,-0.2466928,0.6966449,52.29,-44.03,-27.44,50,246.0,8.265793
1784073137244,0.532671,-0.5731765,0.116636164,97.58,-39.2,-41.93,50,246.0,8.265793
1784073137244,0.3613769,-0.9953116,0.11444009,41.51,-27.02,-47.74,50,246.0,8.265793
1784073137244,0.10980393,-1.0270326,0.15348148,18.76,-13.93,-48.44,50,246.0,8.265793
1784073137244,2.4400871E-4,-0.93918955,0.19203486,30.66,-7.42,-47.6,50,246.0,8.265793
1784073137244,0.09491939,-0.82279736,-0.11834422,40.18,-9.31,-46.97,50,246.0,8.265793
1784073137244,0.18544662,-0.51022226,0.013908497,21.63,-17.22,-46.55,50,246.0,8.265793
1784073137374,1.4325751,0.3948061,4.0176034,94.29,-112.0,-7.56,50,246.0,8.265793
1784073137374,1.6563313,0.049777776,1.6263181,255.71,-118.72,27.09,50,246.0,8.265793
1784073137374,-2.8468497,0.026108934,-1.9271809,284.27,-35.63,4.62,50,246.0,8.265793
1784073137374,-2.4347188,2.0059958,0.45312417,64.68,-42.7,27.86,50,246.0,8.265793
1784073137374,-3.6306057,2.9834945,-0.784976,19.18,46.62,136.15,50,246.0,8.265793
1784073137374,-0.9055164,4.821368,-2.097255,63.14,54.88,268.38,50,246.0,8.265793
1784073137374,1.2764096,3.9651418,0.48020917,-69.3,38.85,273.63,50,246.0,8.265793
1784073137374,3.554231,2.6801918,-1.5518955,21.98,-10.5,95.62,50,246.0,8.265793
1784073137517,0.52388674,1.0143442,0.3308758,-101.5,26.04,12.46,51,246.0,8.265793
1784073137517,0.48167318,1.3032506,-0.21033551,-32.48,28.42,-4.41,51,246.0,8.265793
1784073137517,0.16177778,1.7012287,-0.6529673,-46.69,15.89,-14.63,51,246.0,8.265793
1784073137517,-0.3667451,1.7973683,-0.55072767,-81.76,-11.2,-1.82,51,246.0,8.265793
1784073137517,-0.65394336,1.8305534,-0.26206535,-53.69,-32.48,23.03,51,246.0,8.265793
1784073137517,-0.756427,1.7956601,-0.47581697,-16.52,-27.3,40.11,51,246.0,8.265793
1784073137517,-0.6219782,1.7780914,-0.65150326,-25.69,-16.1,38.99,51,246.0,8.265793
1784073137517,-0.51973855,1.6848803,-0.49875382,-49.56,-9.24,22.89,51,246.0,8.265793
1784073137600,-0.2100915,1.4779607,-0.29598257,-32.76,-3.92,-2.1,51,246.0,8.265793
1784073137600,-0.17739433,1.4457517,-0.34258825,-23.59,2.94,-8.05,51,246.0,8.265793
1784073137600,-0.083939,1.3627887,-0.4677647,-31.85,2.17,-13.79,51,246.0,8.265793
1784073137600,-0.064906314,1.2481046,-0.25572112,-47.46,6.3,-18.9,51,246.0,8.265793
1784073137600,0.021228759,1.1390327,-0.2293682,-38.15,13.51,-25.13,52,240.0,8.265793
1784073137600,0.06563834,1.0250806,-0.2774379,-19.11,15.26,-31.15,52,240.0,8.265793
1784073137600,0.047093682,1.009464,-0.33673203,-7.63,19.25,-37.31,52,240.0,8.265793
1784073137600,0.16983007,0.8891677,-0.35283658,-18.69,20.16,-41.86,52,240.0,8.265793
1784073137645,0.34649238,0.38016558,-0.12981263,-74.76,-19.74,-43.75,52,240.0,8.265793
1784073137645,0.19740304,0.36796516,-0.009272331,-57.54,-27.86,-40.04,52,240.0,8.265793
1784073137645,0.05465795,0.26962963,0.09467538,-42.84,-30.73,-33.95,52,240.0,8.265793
1784073137645,-0.18617864,0.23912853,0.15982571,-35.14,-25.62,-26.53,52,240.0,8.265793
1784073137645,-0.2857342,-0.09565142,0.5273028,-7.77,-12.53,-17.36,52,240.0,8.265793
1784073137645,-0.35405663,-0.11053595,0.5761046,36.96,5.67,-3.92,52,240.0,8.265793
1784073137645,-0.2015512,-0.2462048,0.5641481,101.57,18.69,14.49,52,240.0,8.265793
1784073137645,0.01903268,-0.38553378,0.21594772,143.43001,23.8,33.39,52,240.0,8.265793
1784073137735,0.31452724,-0.85159045,-0.14250109,42.07,10.57,65.8,52,240.0,8.265793
1784073137735,0.29256645,-0.6839564,-0.070030496,1.82,17.01,71.05,52,240.0,8.265793
1784073137735,0.2998867,-0.54487145,0.08930719,-10.01,26.95,70.56,52,240.0,8.265793
1784073137735,0.26450545,-0.46117648,-0.0024400873,4.69,37.52,66.57,52,240.0,8.265793
1784073137735,0.23278432,-0.29500654,-0.22839217,0.7,38.920002,57.89,52,240.0,8.265793
1784073137735,0.20765142,-0.124200426,0.30574292,-20.09,38.64,43.33,52,240.0,8.265793
1784073137735,0.042701527,0.04538562,1.9942832,-15.75,69.51,18.27,52,240.0,8.265793
1784073137735,-0.31989545,0.07320262,3.0154598,95.2,145.18001,-27.23,52,240.0,8.265793
1784073137824,5.257168,1.934257,-1.5011415,113.89,121.73,-92.54,52,240.0,8.265793
1784073137824,3.0381525,4.1244793,-0.7622832,-2.73,45.29,-293.79,52,240.0,8.265793
1784073137824,-0.13371678,1.8088367,-1.7331939,202.93001,-20.51,-403.06,52,240.0,8.265793
1784073137824,-0.82816565,2.6740913,-0.8252375,-173.67,19.11,-334.81,52,240.0,8.265793
1784073137824,-4.148148,5.882318,1.1143879,83.58,72.87,-118.020004,52,240.0,8.265793
1784073137824,-2.2514684,1.8620306,-1.4359913,51.66,94.15,16.31,52,240.0,8.265793
1784073137824,-1.009708,1.3310674,-0.79986054,-78.12,53.13,52.920002,52,240.0,8.265793
1784073137824,-0.6332026,1.093403,0.027084969,-153.44,60.27,59.64,52,240.0,8.265793
1784073138003,-0.1512854,1.9528018,-0.8235294,9.17,82.88,24.29,52,240.0,8.265793
1784073138003,-0.01512854,2.2192593,-0.20081916,1.05,69.51,-9.31,52,240.0,8.265793
1784073138003,-0.124200426,2.0982308,-0.49850982,33.6,48.58,-36.19,52,240.0,8.265793
1784073138003,-0.26548147,2.0743182,-0.5931852,12.81,9.45,-45.78,52,240.0,8.265793
1784073138003,-0.38162962,1.9345012,-0.50656205,-46.69,-23.24,-33.81,52,240.0,8.265793
1784073138003,-0.2859782,1.6107016,-0.40773857,-82.11,-46.41,-16.87,52,240.0,8.265793
1784073138003,-0.25035295,1.4757648,-0.4423878,-64.68,-50.47,-4.69,52,240.0,8.265793
1784073138003,-0.3472244,1.3244792,-0.5929412,-37.66,-37.87,2.8,52,240.0,8.265793
1784073138094,-0.2066754,1.1134118,-0.38626578,-33.18,-12.32,18.69,53,222.0,8.265793
1784073138094,-0.19154684,0.9748148,0.063686274,2.8700001,-17.64,30.52,53,222.0,8.265793
1784073138094,-0.22717212,1.0172724,-0.3806536,34.65,-36.82,44.52,53,222.0,8.265793
1784073138094,-0.2466928,0.8789194,-0.5216906,-39.41,-55.16,57.05,53,222.0,8.265793
1784073138094,-0.5092462,0.4902135,-0.3108671,-85.33,-52.57,59.57,53,222.0,8.265793
1784073138094,-0.35332462,0.44824398,-0.06905446,-70.0,-45.78,58.24,53,222.0,8.265793
1784073138094,-0.16714597,0.44141176,-0.018788671,-45.64,-43.47,54.11,53,222.0,8.265793
1784073138094,0.13469282,0.420183,-0.05563399,-37.1,-48.65,48.16,53,222.0,8.265793
1784073138140,0.58537686,-0.042701527,0.09443137,-54.95,-43.33,24.710001,53,222.0,8.265793
1784073138140,0.7671634,-0.22814815,0.33429193,-34.86,-43.4,2.59,53,222.0,8.265793
1784073138140,0.7364183,-0.26133332,0.38260567,7.98,-42.21,-23.03,53,222.0,8.265793
1784073138140,0.45702833,-0.31550327,0.33014378,44.170002,-36.33,-42.7,53,222.0,8.265793
1784073138140,0.2547451,-0.5397473,0.21985185,92.61,-30.1,-55.79,53,222.0,8.265793
1784073138140,0.1849586,-0.7422745,0.042457517,78.54,-13.72,-62.23,53,222.0,8.265793
1784073138140,0.1371329,-0.9574902,-0.010980392,38.43,4.55,-60.06,53,222.0,8.265793
1784073138140,0.13981698,-0.9094205,-0.12761655,8.54,5.81,-54.74,53,222.0,8.265793
1784073138189,0.058562092,-0.35722876,-0.18300654,-5.95,-8.75,-43.75,53,222.0,8.265793
1784073138189,0.021716775,-0.0419695,0.0,21.63,-1.47,-33.18,53,222.0,8.265793
1784073138189,0.13664488,0.118832245,0.66760784,28.49,-4.41,-19.11,53,222.0,8.265793
1784073138189,0.93040526,0.50436604,3.9112155,24.64,-63.28,2.73,53,222.0,8.265793
1784073138189,2.6789718,0.23473638,4.2130547,167.37,-148.4,43.47,53,222.0,8.265793
1784073138189,-0.4728889,0.6022135,-0.505586,254.17,-83.51,59.5,54,216.0,8.265793
1784073138189,-6.9554687,3.4683397,0.4148148,-11.9,-104.37,110.74,54,216.0,8.265793
1784073138189,-3.2816732,5.5670586,-2.0335686,327.6,-52.99,308.0,54,216.0,8.265793
1784073138274,1.2100393,2.5057254,0.840366,-253.26,-49.49,360.29,54,216.0,8.265793
1784073138274,3.614257,1.9659783,0.10541177,45.85,-60.9,114.1,54,216.0,8.265793
1784073138274,1.3666928,1.6943965,-1.1456208,37.45,-63.98,-8.54,54,216.0,8.265793
1784073138274,0.5011939,1.262501,-0.34990847,-96.95,-49.56,-43.26,54,216.0,8.265793
1784073138274,0.2662135,1.0599738,-0.447512,-135.66,-21.0,-68.32,55,222.0,8.265793
1784073138274,0.24205664,1.2585969,-0.25035295,-102.2,-16.24,-84.14,55,222.0,8.265793
1784073138274,0.30110675,1.7283138,-0.40212634,-43.26,-19.95,-74.48,55,222.0,8.265793
1784073138274,-0.13103268,2.1399565,-0.77228755,-3.92,-26.39,-43.54,55,222.0,8.265793
1784073138320,-0.46337253,2.1741176,-0.20374727,-80.36,-21.0,25.76,55,222.0,8.265793
1784073138320,-0.4055425,1.9654901,-0.6068497,-25.13,-3.99,40.32,55,222.0,8.265793
1784073138320,-0.3157473,1.6985447,-0.62124616,-30.1,3.43,38.01,55,222.0,8.265793
1784073138320,-0.23644444,1.5650718,-0.4336035,-44.03,9.24,25.48,55,222.0,8.265793
1784073138320,-0.16909803,1.3847495,-0.4001743,-36.75,3.15,13.51,55,222.0,8.265793
1784073138320,-0.084915034,1.3296036,-0.46654466,-51.59,-4.06,2.8,55,222.0,8.265793
1784073138320,0.027084969,1.0511895,-0.37748146,-70.98,-4.69,-14.0,56,228.0,8.265793
1784073138320,0.13542484,0.9011242,-0.2571852,-60.27,4.34,-33.88,56,228.0,8.265793
1784073138366,0.23010023,0.81328106,-0.32209152,-34.44,0.98,-61.670002,56,228.0,8.265793
1784073138366,0.25816122,0.77741176,-0.27816993,-57.68,-14.63,-64.89,56,228.0,8.265793
1784073138366,0.15348148,0.65443134,-0.22204792,-71.89,-33.18,-63.420002,56,228.0,8.265793
1784073138366,0.11004794,0.31794336,-0.014152505,-56.420002,-40.95,-59.29,56,228.0,8.265793
1784073138366,-0.15177341,0.54487145,-0.14445315,-25.9,-32.9,-51.66,56,228.0,8.265793
1784073138366,-0.308183,0.26645753,0.02830501,-9.03,-19.74,-39.97,56,228.0,8.265793
1784073138366,-0.37918955,0.017568627,0.251573,14.14,0.7,-21.07,56,228.0,8.265793
1784073138366,-0.3782135,-0.24254465,0.51022226,66.22,22.12,1.96,56,228.0,8.265793
1784073138412,-0.049045753,-0.5111983,0.23595643,148.75,27.58,43.89,56,228.0,8.265793
1784073138412,0.1202963,-0.6988409,0.12834857,112.14,15.75,58.87,56,228.0,8.265793
1784073138412,0.2601133,-0.82645744,0.008296296,65.73,8.89,68.39,56,228.0,8.265793
1784073138412,0.32038346,-0.72446185,-0.033429194,25.76,8.12,72.38,56,228.0,8.265793
1784073138412,0.29549456,-0.56170803,0.0107363835,8.33,11.41,73.29,56,228.0,8.265793
1784073138412,0.2747538,-0.48313725,-0.019276688,1.26,17.01,71.54,56,228.0,8.265793
1784073138412,0.26206535,-0.38504577,-0.17080611,-4.41,24.15,64.89,56,228.0,8.265793
1784073138412,0.3694292,-0.2322963,0.12542048,-16.66,30.03,52.99,56,228.0,8.265793
1784073138462,-0.1288366,-0.10858388,3.8692462,81.62,139.09,-8.96,56,228.0,8.265793
1784073138462,-1.4996775,-0.31013507,1.7195294,340.13,199.92,-33.18,56,228.0,8.265793
1784073138462,6.1736646,1.6607233,-0.9831111,136.64,170.66,-71.4,56,228.0,8.265793
1784073138462,3.192122,4.0683575,-0.6419869,39.9,48.51,-279.37,56,228.0,8.265793
1784073138462,0.36430502,1.3920697,-2.0591896,179.62,-21.56,-386.54,56,228.0,8.265793
1784073138462,-0.9733507,1.7976122,-0.8240174,-218.61,10.22,-352.03,56,228.0,8.265793
1784073138462,-2.0965228,5.744941,2.940793,26.460001,72.31,-218.68001,56,228.0,8.265793
1784073138462,-3.7338214,2.8229368,-2.439599,203.14,102.41,-27.72,56,228.0,8.265793
1784073138544,-0.8371939,0.8249935,0.37723747,-210.49,29.12,74.76,56,228.0,8.265793
1784073138544,-0.51485837,1.3078867,-0.024156863,-73.64,98.07,66.92,56,228.0,8.265793
1784073138544,-0.22351198,1.8434858,-1.0424052,-27.65,106.96,40.74,56,228.0,8.265793
1784073138544,0.25303704,2.0791984,0.24156862,-40.46,94.78,-3.08,56,228.0,8.265793
1784073138544,0.20521133,2.1770456,-0.5402353,41.51,82.6,-44.52,56,228.0,8.265793
1784073138544,0.14323312,2.1319041,-0.5251067,30.45,46.97,-59.15,56,228.0,8.265793
1784073138544,-0.13396078,2.097987,-0.615878,-4.62,11.9,-50.05,56,228.0,8.265793
1784073138544,-0.30964705,1.8351896,-0.57561654,-50.4,-8.26,-24.57,56,228.0,8.265793
1784073138682,-0.31403923,1.4755207,-0.55438775,-66.22,-29.26,10.64,56,228.0,8.265793
1784073138682,-0.28646624,1.2520087,-0.58806103,-65.45,-16.66,16.66,56,228.0,8.265793
1784073138682,-0.25816122,1.1131678,-0.3694292,-52.5,-3.64,18.76,56,228.0,8.265793
1784073138682,-0.26182136,1.0165403,-0.15055338,-16.31,-2.24,21.56,57,228.0,8.265793
1784073138682,-0.27572984,0.9711547,-0.21960786,13.02,-14.14,30.380001,57,228.0,8.265793
1784073138682,-0.32843572,0.9367494,-0.43775165,-11.2,-38.64,41.51,57,228.0,8.265793
1784073138682,-0.38260567,0.69274074,-0.35430065,-53.27,-42.63,49.07,57,228.0,8.265793
1784073138682,-0.36186492,0.53413504,-0.2886623,-50.19,-41.58,51.8,57,228.0,8.265793
1784073138724,-0.08979521,0.29256645,0.0070762527,-6.79,-48.51,54.6,57,228.0,8.265793
1784073138724,0.109071895,0.28378212,-0.1093159,-6.58,-51.59,53.13,57,228.0,8.265793
1784073138724,0.45044008,0.107363835,-0.16104576,-33.25,-43.75,48.65,57,228.0,8.265793
1784073138724,0.70762527,-0.36601308,0.1568976,-35.56,-35.07,32.69,57,228.0,8.265793
1784073138724,0.7388584,-0.67956424,0.56195205,24.85,-33.95,1.6800001,57,228.0,8.265793
1784073138724,0.7064052,-0.4455599,0.51900655,81.76,-26.04,-25.48,57,228.0,8.265793
1784073138724,0.60928977,-0.77814376,0.53681916,72.03,-25.62,-46.97,57,228.0,8.265793
1784073138724,0.45239213,-0.7078693,0.19398694,49.28,-18.83,-64.54,57,228.0,8.265793
1784073138904,-0.017812636,-0.7444706,-0.07710675,17.29,-1.89,-69.51,57,228.0,8.265793
1784073138904,-0.0363573,-0.7308061,-0.07783878,-8.12,-7.4900002,-62.58,57,228.0,8.265793
1784073138904,0.014152505,-0.84451413,-0.15738562,-48.16,-10.29,-60.83,57,228.0,8.265793
1784073138904,-0.12371241,-0.32331154,0.10248367,-48.93,-18.55,-58.45,57,228.0,8.265793
1784073138904,0.14982136,0.3052549,1.4921134,16.87,-50.26,-43.4,57,228.0,8.265793
1784073138904,1.3642527,0.5290109,4.669839,105.21,-114.24,-8.68,57,228.0,8.265793
1784073138904,1.4908932,-0.0056122006,2.1606972,319.76,-117.32,35.14,57,228.0,8.265793
1784073138904,-3.2074945,0.6705359,-2.4044619,322.84,-81.62,29.68,57,228.0,8.265793
1784073138950,-3.7387016,4.1083746,-1.3010544,100.24,-14.35,225.05,57,228.0,8.265793
1784073138950,-0.36796516,3.6615946,-1.8539783,52.29,14.42,333.69,57,228.0,8.265793
1784073138950,1.96061,4.838205,0.85866666,-35.35,-10.57,259.35,57,228.0,8.265793
1784073138950,3.161865,2.2326798,-1.3403399,5.95,-25.83,98.07,57,228.0,8.265793
1784073138950,1.1800262,0.91064054,0.019276688,-92.47,-32.06,44.170002,57,228.0,8.265793
1784073138950,0.5787887,1.0821786,0.22570805,-48.09,-21.84,22.47,57,228.0,8.265793
1784073138950,0.336488,1.5082178,-0.7744837,-31.78,-11.9,-3.99,57,228.0,8.265793
1784073138950,0.074666664,1.8449498,-0.6800523,-81.83,-31.43,-13.93,57,228.0,8.265793
1784073138995,-0.6210022,2.0438168,-0.48801744,-39.41,-42.420002,14.21,57,228.0,8.265793
1784073138995,-0.57268846,2.0316167,-0.57342046,-25.55,-31.15,22.89,57,228.0,8.265793
1784073138995,-0.3584488,2.0377169,-0.6031895,-37.170002,-13.93,16.24,57,228.0,8.265793
1784073138995,-0.2549891,1.8283572,-0.4384837,-46.76,0.49,5.18,57,228.0,8.265793
1784073138995,-0.1649499,1.680732,-0.30915904,-31.15,12.25,-0.21000001,57,228.0,8.265793
1784073138995,-0.02830501,1.5692201,-0.50900215,-24.29,8.47,-2.8,57,228.0,8.265793
1784073138995,-0.01146841,1.4040262,-0.47459695,-40.53,-1.33,-3.15,57,228.0,8.265793
1784073138995,-0.012444444,1.2000349,-0.20618735,-32.62,1.4,-4.76,57,228.0,8.265793
1784073139041,0.057098042,1.1117036,-0.5175425,-1.75,21.7,-25.13,57,228.0,8.265793
1784073139041,0.21741176,1.0624139,-0.38724184,-36.4,20.65,-37.87,58,234.0,8.265793
1784073139041,0.37626144,0.79937255,-0.33722004,-57.75,13.93,-45.5,58,234.0,8.265793
1784073139041,0.16909803,0.67712414,-0.30989107,-56.28,-3.43,-47.670002,58,234.0,8.265793
1784073139041,-0.02269281,0.55633986,-0.19447495,-54.32,-13.09,-48.65,58,234.0,8.265793
1784073139041,-0.07100654,0.49460566,-0.08759913,-49.0,-15.190001,-47.95,58,234.0,8.265793
1784073139041,-0.25084096,0.4033464,0.06685839,-27.72,-13.65,-39.62,58,234.0,8.265793
1784073139041,-0.34258825,0.20887147,0.18910675,4.55,-11.55,-22.33,58,234.0,8.265793
1784073139088,-0.392122,-0.20765142,0.642231,75.25,14.14,16.73,58,234.0,8.265793
1784073139088,-0.1849586,-0.22570805,0.52535075,127.19,20.51,33.46,58,234.0,8.265793
1784073139088,0.01903268,-0.51144224,0.28475818,141.19,15.54,47.88,58,234.0,8.265793
1784073139088,0.2100915,-0.8169412,0.05661002,107.31,15.05,60.83,58,234.0,8.265793
1784073139088,0.27938998,-0.8596427,0.03611329,50.12,7.77,68.67,58,234.0,8.265793
1784073139088,0.38382572,-0.754231,0.067590415,27.3,14.7,72.52,58,234.0,8.265793
1784073139088,0.4514161,-0.6102658,0.09687146,26.6,27.16,68.53,58,234.0,8.265793
1784073139088,0.4584924,-0.49167755,-0.10492375,29.75,34.79,58.52,58,234.0,8.265793
1784073139134,0.3501525,-0.31501526,0.005124183,-3.15,38.920002,28.07,58,234.0,8.265793
1784073139134,0.251817,0.0073202616,1.5616558,-29.960001,58.31,5.25,58,234.0,8.265793
1784073139134,-0.18154249,-0.039285403,3.7469976,46.34,130.9,-39.41,58,234.0,8.265793
1784073139134,-1.6182657,-0.27036166,1.9000958,281.4,200.34,-66.43,58,234.0,8.265793
1784073139134,4.9204354,1.3608366,-1.7478343,147.35,149.31,-94.29,58,234.0,8.265793
1784073139134,3.6318257,4.3255424,-0.16763398,18.48,67.13,-276.01,58,234.0,8.265793
1784073139134,0.0588061,1.8896034,-2.0372288,210.7,-21.28,-401.17,58,234.0,8.265793
1784073139134,-0.6397909,1.903024,-1.4540479,-222.88,-5.04,-365.82,58,234.0,8.265793
1784073139267,-3.2960696,2.016,-1.8854554,119.14,87.85,-15.12,58,234.0,8.265793
1784073139267,-1.1551372,1.6970806,-0.88135946,-70.77,53.41,53.41,58,234.0,8.265793
1784073139267,-0.83475375,1.040209,0.15811765,-159.32,50.19,63.63,58,234.0,8.265793
1784073139267,-0.49582568,1.4603921,-0.16446187,-43.82,88.2,53.62,58,234.0,8.265793
1784073139267,-0.16690196,2.0877388,-1.0509455,-1.19,93.1,21.210001,58,234.0,8.265793
1784073139267,0.074666664,2.1487408,-0.108095855,-30.52,76.3,-17.99,58,234.0,8.265793
1784073139267,0.056366015,2.178022,-0.5011939,26.32,57.89,-46.06,58,234.0,8.265793
1784073139267,-0.13322876,2.324183,-0.78058386,7.84,22.54,-48.37,58,234.0,8.265793
1784073139312,-0.32697168,1.6961046,-0.50851417,-103.74,-40.39,-15.33,58,234.0,8.265793
1784073139312,-0.1371329,1.4957734,-0.52803487,-87.22,-40.46,-5.25,58,234.0,8.265793
1784073139312,-0.13884096,1.402562,-0.6307625,-63.0,-26.81,1.4,58,234.0,8.265793
1784073139312,-0.118832245,1.2612811,-0.5614641,-53.2,-6.09,7.28,58,234.0,8.265793
1784073139312,-0.16738997,1.1849064,-0.20789543,-33.18,9.59,16.24,58,234.0,8.265793
1784073139312,-0.23888454,1.1043835,0.022448802,6.3,-4.48,29.33,59,240.0,8.265793
1784073139312,-0.32916775,1.0968192,-0.4360436,-15.05,-26.74,44.52,59,240.0,8.265793
